// Start Time : 02/09/2022 05:49:08																																
// Update Rate : 100Hz																																
// Filter Profile : 46.1 human																																
// Firmware Version : 4.3.5																																
PacketCounter	Time_Of_Arrival	Acc_X	Acc_Y	Acc_Z	FreeAcc_X	FreeAcc_Y	FreeAcc_Z	Gyr_X	Gyr_Y	Gyr_Z	Mag_X	Mag_Y	Mag_Z	VelInc_X	VelInc_Y	VelInc_Z	OriInc_q0	OriInc_q1	OriInc_q2	OriInc_q3	Mat[1][1]	Mat[2][1]	Mat[3][1]	Mat[1][2]	Mat[2][2]	Mat[3][2]	Mat[1][3]	Mat[2][3]	Mat[3][3]	Euler_X	Euler_Y	Euler_Z
42202	1662097782274	5.32543660613061	-0.531417345010485	8.09481950513636	6.83047368665868E-15	1.04625509644851E-15	-0.108627271696699	-0.0027516270398883	0.00503675342177762	-0.0111789536620777	0.34716796875	-0.46923828125	0.433837890625	0	0	0	0.168645198814025	-0.233412018467137	0.635169676586331	0.716684804148441	0.0841566231606241	0.831705278010661	0.548802326259109	-0.989160543050554	0.136236557724386	-0.0547815699970599	-0.120329060704942	-0.538243375127478	0.834155253104149	-3.75739641980689	-33.2848862879368	84.2221557399038
42203	1662097782275	5.31955226212828	-0.516069203793896	8.11434787373649	-4.01154803819637E-15	-1.2793585635329E-15	-0.0963812342128669	0.0137857844102203	0.0114279977952109	-0.0108813227858382	0.349853515625	-0.46728515625	0.440185546875	0	0	0	0.168771158532564	-0.232315215466852	0.635305359123264	0.716891231205562	0.0848334826637013	0.832473466068571	0.547531924649995	-0.989305898304903	0.135806793433673	-0.0532010755191357	-0.118647038725274	-0.537163330048733	0.835091873420332	-3.64520771402489	-33.1978568999573	84.1813409160957
42204	1662097782275	5.29534702142651	-0.515567041924056	8.10879770972183	-0.0112436257936936	-0.0241477686740688	-0.114316356724123	0.0033420304050989	0.00343807608000082	-0.0100605591266452	0.34912109375	-0.473876953125	0.434326171875	0	0	0	0.168730343094422	-0.232839220950539	0.635236589156301	0.716791771927838	0.0845207459684265	0.832090637395837	0.548161850787814	-0.989238803943126	0.136009094232611	-0.0539269418675755	-0.119427100249922	-0.537705028286147	0.834631937012766	-3.69683589244842	-33.2409994213943	84.1999958263957
42205	1662097782276	5.32380936730665	-0.528020832675648	8.09611204792156	0.00618114202966173	0.00511214216880718	-0.108630586831056	0.0102795919238203	0.0096243207735525	-0.0109873769209068	0.36572265625	-0.468017578125	0.442138671875	0	0	0	0.168749406913998	-0.232762807468485	0.635217295351909	0.716829199189992	0.0846409262903852	0.832127438853594	0.548087437461995	-0.989241781701371	0.136045250703955	-0.0537809175934021	-0.1193172700534	-0.537638926481191	0.834690226251121	-3.68659643031474	-33.2359018765198	84.1920602412457
42206	1662097782278	5.31579186760629	-0.478369975348851	8.12051560059067	-0.0451905478022921	-0.00774024962303466	-0.095323911103776	0.0071541875364897	0.000922602938851156	-0.00967377640763342	0.352294921875	-0.466796875	0.437744140625	0	0	0	0.168787758526169	-0.232732961304041	0.635186268535367	0.716857353703287	0.0847475459735356	0.832110945394524	0.548096002545261	-0.989240844889191	0.136098193671656	-0.0536640706826429	-0.119249336494518	-0.537651054340958	0.834692122588727	-3.67860044277317	-33.2364885962981	84.1846797840324
42207	1662097782279	5.29658889067274	-0.546226648163076	8.10472866928774	0.0232885859974972	-0.0242527503375017	-0.11538291403772	0.00660923598360674	0.00697052600183991	-0.00910493488442488	0.356689453125	-0.465087890625	0.43994140625	0	0	0	0.168799904742764	-0.232679301951666	0.635167206068602	0.716888802351609	0.0848459255565818	0.832136027292969	0.548042699976491	-0.989241003313184	0.136138424987679	-0.0535590011650539	-0.119178044456062	-0.537602047357476	0.834733869204239	-3.67123467368245	-33.2328373622892	84.1781496686497
42208	1662097782281	5.33836821815376	-0.529046640964968	8.13601767105646	0.00749268015912594	-0.00380986106830126	-0.0672895641187505	0.0144706318875792	0.000209568684462805	-0.00918224376684	0.362548828125	-0.46630859375	0.43505859375	0	0	0	0.168861667757723	-0.232624390089458	0.635151352339323	0.716906123505106	0.0849373055140745	0.832125102745961	0.548045132732728	-0.989250472632477	0.136136993567221	-0.0533874646232674	-0.119034266194365	-0.537619319186451	0.834743260595176	-3.65946753860624	-33.2330040031384	84.1718466257418
42209	1662097782282	5.32279693936238	-0.522903771205942	8.09710977876702	0.00620868081401102	0.00498868343362316	-0.108630540158035	0.00724610530540674	0.0043526846082148	-0.0127996522468558	0.3466796875	-0.47509765625	0.441162109375	0	0	0	0.168888705647178	-0.232574968353807	0.635117572828719	0.716945714740108	0.0850691055587665	0.832131073648961	0.548015623451795	-0.989248215133792	0.136204547577957	-0.0532568312396761	-0.118958884216517	-0.537592966366667	0.834770978400094	-3.65041657320891	-33.2309826746492	84.1629068797464
42210	1662097782283	5.33797254608688	-0.526177782636063	8.136463306321	0.00749203293173082	-0.00380271069637161	-0.0672895608284119	0.0129381183668621	0.00363976522863001	-0.00883908193913182	0.3525390625	-0.47705078125	0.434326171875	0	0	0	0.168933520900641	-0.232513160657559	0.635104094784078	0.716967143198098	0.0851608378190585	0.832139003170273	0.547989334845798	-0.989256070712744	0.136208508609219	-0.0531005531085501	-0.118827851364643	-0.537579688590665	0.83479819127429	-3.63961521027493	-33.2291819954923	84.1567114156639
42211	1662097782285	5.31706833784552	-0.505649619842768	8.11663155035555	-0.0106757331079815	-0.00769898037190265	-0.0963901494144572	0.0110580399201911	0.00183692042856451	-0.0124128562851061	0.353271484375	-0.46826171875	0.426513671875	0	0	0	0.168981759154557	-0.232460975022864	0.635074001791637	0.716999353146714	0.0852858146795504	0.832131967981504	0.547980581478645	-0.989258625958092	0.136252354642774	-0.0529402193214898	-0.118716893414346	-0.537579467351134	0.834814120328902	-3.62858597379454	-33.2285824281552	84.1481464969296
42212	1662097782286	5.34884236898764	-0.4978826139499	8.08969115409954	-0.0108758817172913	0.0342429240177414	-0.101878246124448	0.0121157063365727	0.00187038631828401	-0.011053123104923	0.347412109375	-0.473388671875	0.44091796875	0	0	0	0.169031637703666	-0.232405967620078	0.635050188820644	0.717026519278511	0.0853974477868804	0.832127730276601	0.547969630925109	-0.989263575552308	0.136279126268163	-0.0527785735791381	-0.118595337163606	-0.537579240901561	0.834831543339584	-3.61746074934088	-33.2278323689547	84.1405104614317
42213	1662097782287	5.31677421588755	-0.502480146525474	8.11702104506921	-0.0106745154754463	-0.00768534174987891	-0.0963901372792968	0.0131006812845058	0.0044860766202173	-0.0108303376101256	0.355712890625	-0.46875	0.44482421875	0	0	0	0.169076945482277	-0.232339132260141	0.635030372990484	0.717055046357359	0.0855099060003434	0.832137085488951	0.547937886014252	-0.98926984868314	0.1362988237719	-0.0526098576773754	-0.118461902999444	-0.537559765600394	0.834863028253976	-3.60579183536628	-33.2256580346317	84.1329135096377
42214	1662097782290	5.32191671666144	-0.515283715689973	8.09817680431554	0.00622632488391102	0.00500317302270065	-0.108630558922457	0.00877602409864117	0.000914807844999091	-0.0131468195386445	0.34619140625	-0.465087890625	0.4326171875	0	0	0	0.169121567018769	-0.232296446041302	0.634993981091569	0.717090580542777	0.0856420102681212	0.832123727149454	0.547937540958947	-0.989269083019037	0.136361079093192	-0.0524627247787919	-0.118372832440176	-0.537564655481964	0.834872513451394	-3.59569334110433	-33.225634400728	84.1238191511697
42215	1662097782291	5.3372971354174	-0.518416057258321	8.13740457331732	0.00751039973567471	-0.0037953099103651	-0.0672895720806661	0.0142305447103646	0.00193744796670983	-0.00833409775993655	0.34765625	-0.465087890625	0.444091796875	0	0	0	0.169176117955338	-0.232237269675862	0.634982264232038	0.717107255435209	0.0857267493685114	0.832122778050323	0.547925731000581	-0.98927877696356	0.136353930448633	-0.0522982514114202	-0.118230393267515	-0.537567937939961	0.834890583374125	-3.58437271382501	-33.224825504048	84.118039004873
42216	1662097782292	5.35068097527114	-0.5256831829256	8.08546285021511	0.0236559887310125	0.0342556634705423	-0.102944527500538	0.0122778439524987	0.00271432729088057	-0.0130452372908682	0.3525390625	-0.466796875	0.435791015625	0	0	0	0.169227084603499	-0.232177586543931	0.634951914908381	0.717141428100075	0.0858592681216302	0.832119173902336	0.547910454820596	-0.98928211822676	0.13639651918156	-0.0521237000982209	-0.11810620912718	-0.537562712601282	0.834911524286472	-3.57235112845505	-33.2237792073672	84.1089850685617
42217	1662097782292	5.32156989848987	-0.510449742602476	8.09871084513349	0.00623089084576475	0.00499600005043262	-0.108630558157591	0.0122772153454981	0.00271302828689663	-0.0130461003414004	0.348876953125	-0.466064453125	0.435302734375	0	0	0	0.169277638262346	-0.232117841481013	0.634921680867573	0.717175604726495	0.0859915336609829	0.832115960851409	0.547894591901552	-0.989285400869247	0.136439080697237	-0.0519497149700132	-0.117982421426265	-0.537556885319897	0.834932777701035	-3.56036720564619	-33.2226927369777	84.0999513534855
42218	1662097782293	5.32134434790485	-0.508793465778654	8.09896326754011	0.0062050324925615	0.00494918296538085	-0.108630517598424	0.0120390991820612	0.00444524612651531	-0.0121953381134579	0.355712890625	-0.46142578125	0.43798828125	0	0	0	0.169321734552343	-0.232055846166984	0.634895348434401	0.717208568691333	0.0861159615921706	0.832120571466833	0.547868045884012	-0.989288965010855	0.136476093489093	-0.0517843568436148	-0.117861719259504	-0.537540352390094	0.834960468935821	-3.54894601677631	-33.2208745985166	84.0915069681106
42219	1662097782293	5.31577167737681	-0.492733517029445	8.11827507594177	-0.010678741557606	-0.0077456619461725	-0.0963901898220367	0.0134980618345437	0.00359364746334499	-0.0136768558884852	0.3486328125	-0.46435546875	0.436767578125	0	0	0	0.169374599425269	-0.231988529977857	0.634865003475181	0.717244724198582	0.0862554986423419	0.832121219969264	0.547845109707867	-0.98929307731429	0.136517344863975	-0.0515967220791437	-0.117725087096943	-0.537528873483234	0.834987134056485	-3.53600686119194	-33.2193037287523	84.082005678346
42220	1662097782294	5.3236893205955	-0.485539237880267	8.08548089589963	-0.0114412656817498	0.0175756121271873	-0.119804531232965	0.0132596103057521	0.00532578325420576	-0.0128264308731788	0.350830078125	-0.46826171875	0.4365234375	0	0	0	0.1694210358542	-0.231918593833237	0.634838561508924	0.717279777538573	0.086387533311388	0.832129947541904	0.54781104816559	-0.98929750114621	0.13655302686274	-0.0514171671768195	-0.117591021401462	-0.537506298808239	0.835020556889008	-3.52359204506392	-33.2169709487399	84.0730729329707
42221	1662097782295	5.34135197312325	-0.522455685810671	8.11985380275069	0.0243528640354994	0.00880289881901638	-0.0795298163432232	0.0135708727118	0.00100983778027233	-0.0125400047604486	0.355712890625	-0.470947265625	0.436279296875	0	0	0	0.16948104195354	-0.231861271745973	0.634810177256379	0.717309254042082	0.0865127790321304	0.832118249563829	0.547809052322949	-0.98930260926055	0.136584430540135	-0.0512351504759641	-0.11745589118646	-0.537516429587838	0.835033054165365	-3.51109737719936	-33.216834260974	84.0644584563536
42222	1662097782296	5.30990932235286	-0.473008738364077	8.13798165483582	-0.0276189417459814	-0.0205567193959548	-0.084150266949683	0.0137338369293892	0.00185530102347625	-0.0145310835440663	0.348876953125	-0.4736328125	0.43798828125	0	0	0	0.169542783127018	-0.231802468461509	0.634774987620435	0.717344809276663	0.0866566614132546	0.832104213579001	0.547807631177936	-0.989305956133709	0.136631919562042	-0.0510435472431097	-0.117321558935587	-0.537526088949052	0.835045720609392	-3.49794672124564	-33.21673693222	84.054557934968
42223	1662097782297	5.32569281773203	-0.513955792171547	8.08115076571409	0.0230325401933477	0.0175282380160604	-0.120870501399462	0.017397691398744	0.00450246519957803	-0.0164210400702702	0.3486328125	-0.467529296875	0.437255859375	0	0	0	0.16960992312445	-0.231717181418597	0.634740066231992	0.717387391952873	0.0868243923104551	0.83210597471028	0.54777839657235	-0.989312108018371	0.136675044595049	-0.0508083173623077	-0.117145541221883	-0.537512398960615	0.835079243626278	-3.48172704792561	-33.2147347905864	84.0431452419998
42224	1662097782298	5.31719363719839	-0.517228835449412	8.11457119493165	0.0237460782664136	-0.00789956980184212	-0.0974563863507978	0.014715552800459	0.00446847781550186	-0.0143120166352053	0.35400390625	-0.470947265625	0.431640625	0	0	0	0.16966653992508	-0.231645454630377	0.634709131855223	0.717424537159503	0.0869694025773513	0.832106844751269	0.547754070668055	-0.989316775857302	0.136715166338881	-0.0506090930588991	-0.116998461625146	-0.53750084856772	0.835107297157874	-3.46799202959503	-33.2130688579004	84.0332742749787
42225	1662097782298	5.31985877102258	-0.495328657108346	8.10077372162345	0.00611961307978093	0.0047694192369381	-0.108630373338338	0.0197498962387824	0.00283760561585216	-0.0145532877342561	0.353759765625	-0.464111328125	0.4296875	0	0	0	0.169745227576951	-0.231560250210574	0.634682210595459	0.717457245967261	0.0871166841521557	0.832102207016923	0.547737711336273	-0.989327196496002	0.136730098537021	-0.0503644559924782	-0.116800606229999	-0.53750422996626	0.835132816474531	-3.4511636682403	-33.2119485249681	84.023209711593
42226	1662097782300	5.33769062975561	-0.532140053365562	8.13508827537364	0.0418418275572196	-0.00407439737566498	-0.0683552623294226	0.00754965518778305	1.40683832819873E-05	-0.012525342846197	0.353271484375	-0.468017578125	0.437255859375	0	0	0	0.169786947371215	-0.231530637555341	0.634645503129686	0.717489401826152	0.0872372984609692	0.832081084477486	0.547750602566535	-0.989324605171216	0.136794955719263	-0.0502390853079698	-0.116732512009501	-0.537520426537016	0.835131912751163	-3.44259719654742	-33.2128313513815	84.014843953734
42227	1662097782300	5.32776410816343	-0.39381996508932	8.15501137498958	-0.096199335228616	-0.00417954662916668	-0.0640924536417327	0.0243060069617448	0.00467396076221831	-0.0130946359483006	0.355712890625	-0.469970703125	0.431884765625	0	0	0	0.169874474186576	-0.231425646675836	0.634630611808302	0.717515727797186	0.0873723132329833	0.832088270543322	0.547718165578375	-0.989341510712706	0.13677329915131	-0.0499643855157447	-0.116487999643814	-0.537514813436327	0.835169666161011	-3.42366408899132	-33.2106099954403	84.0056996772077
42228	1662097782301	5.34025040743848	-0.50899321446249	8.12143323911453	0.0242316280987717	0.0085458715597161	-0.0795292846918638	-0.0028476035675277	0.00157832985628662	-0.0080645002005988	0.350830078125	-0.465087890625	0.4345703125	0	0	0	0.169870868152686	-0.231423165557939	0.63459891161393	0.717545418753831	0.0874550796431161	0.832082975461546	0.547713000568434	-0.989331191637425	0.136856219062936	-0.0499416515252452	-0.116513528390001	-0.537501904416029	0.83517441319239	-3.42209060676088	-33.2102562894589	84.0000248702546
42229	1662097782302	5.32979051309495	-0.425531769931457	8.15048492249446	-0.0616728986706328	-0.00420220056988746	-0.0651580740544801	0.0152047331247913	0.0045426252322936	-0.00812375022061181	0.356689453125	-0.46484375	0.4375	0	0	0	0.169920415406154	-0.231351745856495	0.634591195695724	0.717563541759769	0.0875407680692469	0.832096242384231	0.547679155469596	-0.989341781427729	0.136842133547343	-0.0497701718664699	-0.116359157126773	-0.537484952250995	0.835206844234704	-3.41023618503542	-33.2079385724849	83.9942841020536
42230	1662097782303	5.31912505598717	-0.488527174003468	8.10166847542325	0.00616006306062738	0.00460232540033909	-0.108630318245492	-0.00691226441115011	-0.000180900301349762	-0.0033323213257739	0.357177734375	-0.459228515625	0.4423828125	0	0	0	0.169905004894768	-0.231369454073717	0.63456976506146	0.717580433333562	0.0875787779829481	0.832088037532569	0.547685544306412	-0.989331350440148	0.136907005163105	-0.0497991061520562	-0.116419228151057	-0.53748113430377	0.835200930066679	-3.41223817516743	-33.2083760762004	83.991636698969
42231	1662097782304	5.32165784913888	-0.522389274414253	8.09671390064969	0.0406711734057899	0.00462810137069843	-0.10969642176819	0.00470514965628943	-0.000865499066254763	-0.00842478058844279	0.355712890625	-0.47021484375	0.43212890625	0	0	0	0.169934419218836	-0.231350456924601	0.634544220737245	0.717602181695748	0.0876611960194816	0.832071823299963	0.547696992490108	-0.98932944543394	0.136951850187439	-0.0497135708595799	-0.116373378011498	-0.537494810766126	0.835198518491071	-3.4064009163644	-33.2091600464276	83.9859074764285
42232	1662097782305	5.33990761900479	-0.506708990442219	8.12180146194368	0.0243603854992347	0.00842435058983839	-0.0795295001585945	-0.00308688122779336	0.00331113718680275	-0.00721471615354106	0.3525390625	-0.466064453125	0.433349609375	0	0	0	0.169924858698284	-0.23134346566655	0.634516115625146	0.717631550519997	0.0877389998107326	0.832075556343678	0.547678862516686	-0.989319579200317	0.13702968281669	-0.0496954347809157	-0.116398617359138	-0.53746919405908	0.835211486579515	-3.40510840049584	-33.2079185112977	83.9806356418978
42233	1662097782306	5.31844875637709	-0.541252170180912	8.11107925961689	0.0583315953597387	-0.00811427019575442	-0.0985229934184666	0.00398822552732497	0.00433749075388821	-0.00587356870497915	0.353271484375	-0.47265625	0.437255859375	0	0	0	0.169932298813262	-0.231310203783178	0.634503287807034	0.717651852368465	0.0878023347756977	0.83209077032152	0.547645597036694	-0.989319068992878	0.137057183164208	-0.0496297115663441	-0.116355187830204	-0.537438627648621	0.83523720689165	-3.40051117837355	-33.2056405470248	83.9764317876458
42234	1662097782308	5.34232817456526	-0.4860632862379	8.10806645127922	0.00656589827317444	0.0210511501617145	-0.0907028348464092	0.000727639826303834	0.000799880363692518	-0.00682444055268048	0.3544921875	-0.466064453125	0.4404296875	0	0	0	0.169936326532245	-0.23130679050654	0.6344817840197	0.717671010517681	0.0878600688254859	0.832083513623668	0.547647363420725	-0.989313218746247	0.137109021343811	-0.0496031398208033	-0.116361348908994	-0.537436640565037	0.83523762718058	-3.39869310756968	-33.2057615045502	83.9724479850155
42235	1662097782309	5.33928709835286	-0.505275172270406	8.12229873155587	0.0241932305765777	0.00838175848571584	-0.0795290464629179	0.00187201988620803	0.00426134739554902	-0.0085958868075637	0.353271484375	-0.46435546875	0.43359375	0	0	0	0.169939507645065	-0.231278223287337	0.634456707260292	0.717701632843923	0.0879501400909621	0.83209461475003	0.547616037896973	-0.989307844327932	0.137170500707563	-0.0495403157726784	-0.116338996081281	-0.537403764258899	0.835261894348811	-3.39430023144011	-33.2036164364552	83.9663941985412
42236	1662097782310	5.33895014401933	-0.504597770210317	8.12256233427224	0.0240495555660116	0.00828924502797821	-0.0795286111687154	0.00309252347768361	0.00514352598886948	-0.00922654480020606	0.357177734375	-0.463134765625	0.43359375	0	0	0	0.169943831138597	-0.23125028460884	0.634432056150843	0.717731402583502	0.0880385439930886	0.832104500373524	0.547586810679096	-0.989302737646793	0.1372301207723	-0.0494771385326705	-0.11631555380145	-0.537373235666745	0.835284800252533	-3.38988894001798	-33.201615100791	83.9604454893101
42237	1662097782310	5.31484524434512	-0.504889976760443	8.11688643360101	0.0235111735764439	-0.00827434474785942	-0.0974561269965868	0.00228825421640306	0.00692293453307949	-0.00354303354683097	0.349609375	-0.46533203125	0.433837890625	0	0	0	0.169934249820751	-0.231215078068262	0.634427856828861	0.717748725454308	0.0880817643068514	0.832136849585694	0.547530699009825	-0.9893022929408	0.137247290434794	-0.0494383904509743	-0.116286611347428	-0.537318755330486	0.835323876823492	-3.38708224142604	-33.1977729787678	83.9577356154585
42238	1662097782311	5.31984667236463	-0.518893551402887	8.09812877305915	0.0401630764712476	0.00431605212496413	-0.109694161504004	-0.0016273606002648	0.00245694563862644	-0.00869692610328234	0.34814453125	-0.468017578125	0.43701171875	0	0	0	0.169926906897483	-0.231216125748678	0.634397372442838	0.717777070784271	0.0881581540627892	0.832132093263933	0.547525633402151	-0.989291457557102	0.137329640299755	-0.0494265303221348	-0.116320900429744	-0.537305080243362	0.835327899012052	-3.38625531382463	-33.1974261308213	83.9524999090685
42239	1662097782311	5.33544997270601	-0.469175268648204	8.12823105764974	-0.0106888193633238	0.00815746746881122	-0.0784636566561172	0.0038245193146895	0.00349212755197294	-0.00388276210976428	0.351806640625	-0.47119140625	0.43017578125	0	0	0	0.169934134833145	-0.231188077131625	0.634390794733669	0.717790207768172	0.0882007850987304	0.83214550897399	0.547498377534021	-0.989292492458395	0.137341418751388	-0.0493730600713855	-0.116279774137312	-0.537281291866536	0.835348925621384	-3.38251558449406	-33.1955599139648	83.9496939992203
42240	1662097782311	5.31392593252308	-0.503748890214063	8.11755920558102	0.0228920230655528	-0.00842301490056396	-0.0974547761197257	-0.00104860729300189	0.00596332326505827	-0.00563544975695446	0.35009765625	-0.468994140625	0.427734375	0	0	0	0.169907195288875	-0.231180700441204	0.63437897357995	0.717809408277874	0.088237603246327	0.832167862464934	0.547458467880339	-0.989284920132463	0.137389725737435	-0.0493903842898493	-0.116316259275522	-0.53723431753969	0.835374057465166	-3.38359813745262	-33.1928273606481	83.9473485133819
42241	1662097782312	5.34254888593199	-0.516835034316612	8.10484107875457	0.0403153070542445	0.0208377988885281	-0.0917647522893627	0.00187148318272617	0.00425947076963809	-0.00859705484651869	0.34765625	-0.468994140625	0.439697265625	0	0	0	0.169910260034609	-0.231152155108745	0.63435396979011	0.717839972232728	0.0883274444002232	0.832179026555531	0.547427009131641	-0.98927951768388	0.137451089093001	-0.0493278217469454	-0.116294017287546	-0.537201327128141	0.835398369447109	-3.37922397234675	-33.1906734880355	83.9413123584794
42242	1662097782312	5.33442583805395	-0.468009708205862	8.12897040468362	-0.0115459958719204	0.00808656316636253	-0.078464576472177	-0.000972038196482748	0.00338422006261221	-0.00449444471017896	0.347900390625	-0.4755859375	0.433837890625	0	0	0	0.169887656778149	-0.231156906393876	0.634345678655831	0.717851118736689	0.0883440891941719	0.832190099827062	0.54740748958548	-0.989272920528429	0.137487488090206	-0.0493586803693129	-0.116337485848743	-0.53717485828031	0.835409337401686	-3.38128876230797	-33.1893370782941	83.940259161488
42243	1662097782313	5.34199191912098	-0.516056245171246	8.10525781534167	0.0398451658312851	0.0208130110441103	-0.0917627607514131	0.0029290475417253	0.00429746070531669	-0.00723603074842145	0.35986328125	-0.4619140625	0.431640625	0	0	0	0.169892644106512	-0.231126063373909	0.634326936366471	0.717876430945957	0.0884201612584151	0.832203478206245	0.547374867841468	-0.989269950320336	0.137531654556851	-0.049295125398519	-0.116304946052335	-0.537142825379138	0.835434464615556	-3.37684371412013	-33.1871036693937	83.9351768353019
42244	1662097782314	5.31814766201769	-0.516335253969826	8.09940813418383	0.0388326920395919	0.00404258100753376	-0.109688628131339	0.000890482149580861	0.00164168918988019	-0.0088174744207062	0.341796875	-0.4716796875	0.439697265625	0	0	0	0.169892564721414	-0.231134574283021	0.634298212880331	0.717899089120613	0.0884851714156507	0.832188127273775	0.547387701053021	-0.989260309756713	0.137604587178398	-0.0492850598814175	-0.116337500315226	-0.537147929728889	0.835426650046774	-3.37618730272233	-33.1879822731632	83.9306398757754
42245	1662097782314	5.31255140186116	-0.501332727006651	8.1186084000838	0.0219393945376751	-0.00865106463782699	-0.0974527785379049	0.00414900283696667	0.00517950322428309	-0.00786687966395083	0.35009765625	-0.4658203125	0.439697265625	0	0	0	0.169899815393818	-0.231096310866058	0.634279331032045	0.717926373703311	0.0885684506592789	0.832205278976926	0.547348155373481	-0.989258161194268	0.137647565909375	-0.0492081102031026	-0.116292390371647	-0.537110343637284	0.83545709566649	-3.37080560435133	-33.1852748744506	83.9250945659267
42246	1662097782315	5.33313459070433	-0.519448257805776	8.13889577256867	0.0396434054563883	-0.00458885106089141	-0.0683462990667287	0.00235062786518292	0.00078907101931624	-0.0102986109829916	0.352294921875	-0.4736328125	0.43310546875	0	0	0	0.169898601593688	-0.231086728271138	0.634259115410477	0.717947605130186	0.0886285970713214	0.832207001921631	0.547335799791847	-0.989252249842139	0.137699679390458	-0.0491811394543949	-0.116296852766689	-0.537094315971019	0.835466778386901	-3.36892338226965	-33.184428996777	83.9210124977599
42247	1662097782316	5.31214782523442	-0.499826478986057	8.11896534256458	0.0214751136848591	-0.00847301931162091	-0.0974515842596624	0.0062639132190391	0.00525654624410483	-0.0051444551671298	0.362060546875	-0.463623046875	0.435302734375	0	0	0	0.169909826830203	-0.231043508464422	0.634252823375319	0.717964416934027	0.0886845064737744	0.832228792019977	0.547293610454638	-0.989255042073708	0.137708013573934	-0.0491015756291818	-0.116230460909566	-0.537058414635215	0.835499095885962	-3.36335595571763	-33.1815407266046	83.9173645135519
42248	1662097782318	5.36423870093583	-0.511677258153535	8.11242287123039	0.0388575736233425	0.0370733798997887	-0.073827529343049	0.00383052127146724	0.0094905823640381	-0.00815957634298803	0.3505859375	-0.46923828125	0.43408203125	0	0	0	0.169893193944119	-0.23102170483694	0.63423393115975	0.717992057833058	0.0887525849197657	0.832251820151551	0.547247555064882	-0.989247881372205	0.13776724643423	-0.0490796802203825	-0.116239441975023	-0.537007535947458	0.835530549091399	-3.36173334084479	-33.1783878962525	83.9128974056581
42249	1662097782318	5.32467143698216	-0.507371039572414	8.06766150795737	0.037041745180477	0.0293195529294122	-0.13309637257688	0.00187032134803061	0.00425632187996565	-0.00859904931015828	0.360107421875	-0.473876953125	0.4345703125	0	0	0	0.169895895351074	-0.230993270061937	0.634209150780071	0.718022455774031	0.0888417245058284	0.832263206960449	0.547215773097541	-0.98924244070943	0.137828275619356	-0.0490179552719728	-0.116217647051043	-0.536974227295597	0.8355549878579	-3.35741716498794	-33.1762122528524	83.9069124663095
42250	1662097782320	5.33681071131409	-0.530781030877598	8.1211986811004	0.0551342410584388	0.00755970998284396	-0.0805730986754725	0.00658823176200106	0.00694243422367596	-0.00912936187951645	0.354736328125	-0.468505859375	0.435546875	0	0	0	0.169891746218387	-0.230979401123912	0.634191319152362	0.718043648767325	0.0888997739364524	0.832271110046612	0.547194325240886	-0.989237085236287	0.137876330557309	-0.0489908834913863	-0.116218842651536	-0.536949640891799	0.835570621646612	-3.35550451872506	-33.1747440643924	83.9030186636922
42251	1662097782320	5.3076948962376	-0.462608350521761	8.1253291154051	-0.0144342840713615	-0.00905226331339188	-0.0963961726188387	0.00309010498923947	0.00513768760093774	-0.00923029557419913	0.35400390625	-0.4580078125	0.435546875	0	0	0	0.16989667155464	-0.230943645128884	0.634166382222787	0.718076008113139	0.0889960648660916	0.832286215203993	0.547155696689491	-0.989232441700367	0.137936241306233	-0.0489159444541254	-0.116184666483495	-0.536910839260786	0.835600307538477	-3.35026470754853	-33.1720998531907	83.896574534792
42252	1662097782324	5.31239268448581	-0.530101222847021	8.11578304888323	0.054221758908949	-0.00925272634328991	-0.0985002017619862	0.00186983600561973	0.00425479872539593	-0.00859999282814467	0.34912109375	-0.470703125	0.435302734375	0	0	0	0.169897145129197	-0.230937059636915	0.634140253613547	0.718101088503666	0.0890684264664036	0.832282518494072	0.547149545203103	-0.989224707041444	0.138002197647789	-0.0488863214319564	-0.116195070401316	-0.536899620835725	0.835606069126408	-3.34821740307278	-33.1716787774786	83.8916224914784
42253	1662097782325	5.31497937417368	-0.509653807775769	8.10191064272283	0.0365917932791245	0.00341978713583847	-0.109679679038512	0.00544548390395409	0.00348136926881294	-0.00735721845730231	0.357177734375	-0.468505859375	0.43359375	0	0	0	0.169913825765038	-0.23090125717318	0.634123241637963	0.718123677136672	0.089144647700813	0.832291196125256	0.547123931699836	-0.989224460046264	0.1380340124569	-0.0488014246843782	-0.116138707726901	-0.536877990103373	0.835627802499466	-3.34232929680318	-33.1699255279907	83.8864980115671
42254	1662097782326	5.33842048042018	-0.508016523206896	8.10811827417484	0.0362700546307639	0.0198296372589352	-0.0917467084185741	0.00211019527815197	0.00251951676730381	-0.00945044964220179	0.35205078125	-0.471923828125	0.436279296875	0	0	0	0.169901803736399	-0.230914278297168	0.63409924200269	0.718143526363101	0.0891934947402242	0.832283026649607	0.547128398136119	-0.989214036214318	0.138103056757465	-0.0488173767302471	-0.116189978279557	-0.536872898613084	0.835623946331232	-3.34343474205638	-33.1702312539348	83.883113905135
42255	1662097782327	5.33818571367568	-0.507195298123894	8.10832425521302	0.0362578060337339	0.0198317876482457	-0.0917466671120213	0.00666494309898685	0.00436319192826285	-0.00798838056805328	0.351318359375	-0.470947265625	0.44287109375	0	0	0	0.169920665354677	-0.230871062033054	0.634082149947246	0.718168049497771	0.0892767596680165	0.832295552754338	0.547095762228636	-0.989214610641528	0.138133589207405	-0.0487192531347822	-0.116121118994394	-0.53684562436331	0.835651040402307	-3.33662165089232	-33.1679973624695	83.8775383955924
42256	1662097782328	5.31419242622082	-0.50704478674831	8.10259053103025	0.034838037618597	0.00330977104618116	-0.109673185650493	0.00894207343509578	0.00528474717609809	-0.00725759166793443	0.344482421875	-0.472900390625	0.434326171875	0	0	0	0.169915100552353	-0.230847992465162	0.634083677302501	0.718175433412774	0.0892941891066834	0.832317519829325	0.547059497657193	-0.989215759237432	0.138133497565642	-0.048696185955298	-0.116097930507352	-0.536811589885542	0.835676125958177	-3.33494553595421	-33.1655151597723	83.8765125839264
42257	1662097782328	5.34283976686778	-0.519415989843659	8.0899461027727	0.0522446554524866	0.032576371807082	-0.103971337162317	0.00682674259827686	0.00520443704641936	-0.00998184328769101	0.3486328125	-0.472900390625	0.428955078125	0	0	0	0.169933954936013	-0.230799415013344	0.634060559856217	0.718206994830964	0.0893976729286373	0.832332143690073	0.547020345741575	-0.989214773250616	0.138179314789251	-0.0485861024070278	-0.116026671320337	-0.536777122784365	0.835708161978607	-3.32729618490505	-33.162835405793	83.8695769209075
42258	1662097782329	5.32887476640652	-0.509234056201586	8.14233074476442	0.0347437868476112	-0.00541411849782848	-0.0683280211036425	0.00828719657915046	0.00435149748502971	-0.0114628439119267	0.350341796875	-0.466552734375	0.429443359375	0	0	0	0.169918160768398	-0.230793622397512	0.63405161438703	0.718220490375289	0.0894257083076726	0.83234566714687	0.546995185605416	-0.989209778486315	0.138212737868573	-0.0485927282412531	-0.116047649009905	-0.536747547244238	0.835724245003439	-3.32768502204124	-33.1611133627835	83.8677679232584
42259	1662097782330	5.34221617144245	-0.516948914168397	8.09051592429379	0.0508805965616846	0.032664013609833	-0.103964387165876	0.00828678078989146	0.00435063029273314	-0.011463420955862	0.35546875	-0.470458984375	0.42919921875	0	0	0	0.169946024836538	-0.230742551316953	0.634024488948004	0.718254252384366	0.0895416448519315	0.832354011891543	0.5469635204703	-0.989209129319371	0.138262592112963	-0.0484639463252551	-0.115963754287378	-0.536721766383904	0.835752447308005	-3.31877388632799	-33.1589461441737	83.8599395285088
42260	1662097782330	5.30460917065831	-0.507497584045936	8.13687017037132	0.0330756737716368	-0.022424641960409	-0.0862547492063719	0.0095059104339315	0.00523189398337531	-0.0120950094000424	0.353271484375	-0.468017578125	0.425048828125	0	0	0	0.169957066349001	-0.230740775325278	0.633997012590044	0.718276463645602	0.0896129652583795	0.832338213807348	0.54697588090664	-0.989202314852862	0.138324767249883	-0.048425603300391	-0.115966791571301	-0.536730245655357	0.835746580400662	-3.31617727486829	-33.1597921082207	83.8549705979068
42261	1662097782331	5.33619413110214	-0.500118500660901	8.11007457823893	0.0328398081836328	0.0195133569307553	-0.0917338749325562	0.00438610975902295	0.00343706020295078	-0.00872194709967303	0.3642578125	-0.469482421875	0.437744140625	0	0	0	0.169970507021858	-0.2307081845638	0.633974335101141	0.71830376774111	0.0897005520166839	0.832345132899826	0.546950994793751	-0.989199481317432	0.138373138351597	-0.0483452246251176	-0.115923238089805	-0.536707047019788	0.835767520636016	-3.31060244534334	-33.1580888792007	83.8490612700865
42262	1662097782332	5.33049031866659	-0.484800841805524	8.12932147132332	0.014883848490642	0.0060642386379605	-0.0795086388051196	0.00682474771806957	0.0052008124492607	-0.00998443638290866	0.353515625	-0.470947265625	0.43896484375	0	0	0	0.169980066439339	-0.230725994645558	0.633940591642912	0.718325565934786	0.0897696833245061	0.832313828723586	0.546987289131387	-0.989189108320125	0.138452206561426	-0.0483310922606673	-0.115958233587162	-0.536735201951351	0.835744584816191	-3.30972746195744	-33.1605729089328	83.8441274414225
42263	1662097782332	5.33266887530508	-0.517963628496147	8.12474623474981	0.0493531997546127	0.00608876675202589	-0.0805410336328425	0.00414409029321437	0.00517064352935634	-0.00787323295628924	0.3505859375	-0.459228515625	0.432861328125	0	0	0	0.169986332584867	-0.230689223614746	0.633921764745465	0.71835250749501	0.0898513565800423	0.832330548342891	0.546948436341076	-0.989186608699375	0.138495685832684	-0.0482576229788014	-0.115916292601842	-0.536698055987682	0.835774257684746	-3.30459035478071	-33.1579137781637	83.8386926502469
42264	1662097782333	5.33521494414062	-0.497124868199314	8.11090281512891	0.0311132443375095	0.0186488623548725	-0.0917264985982484	0.00974622516722496	0.0034944037031014	-0.0129461949136677	0.34912109375	-0.473388671875	0.4384765625	0	0	0	0.170009844701119	-0.230660702155358	0.633896147742743	0.71837870727271	0.0899426287162172	0.832325810016997	0.546940645334726	-0.989184170625331	0.138544653163225	-0.048166956143786	-0.1158663027972	-0.536692765983883	0.835784586371797	-3.29835471140906	-33.1573805622103	83.8324472876226
42265	1662097782334	5.30823612438843	-0.516420582423952	8.11938402966726	0.0481673969851408	-0.0105826614050391	-0.0984696526132929	0.00666370526312414	0.0103502160058483	-0.0122744511090965	0.35205078125	-0.473388671875	0.432373046875	0	0	0	0.170013885385492	-0.230593396408858	0.633868858897146	0.718423436442038	0.0900739105061153	0.832364329189547	0.54686041558973	-0.989180646260375	0.138611096993118	-0.0480480265387835	-0.115794385485841	-0.536615865664816	0.835843928617512	-3.28999553637169	-33.1518898323969	83.8237981724448
42266	1662097782335	5.31057128571107	-0.495525266677259	8.10567678844296	0.0290691518414786	0.00218153485331346	-0.109653868540031	0.00812270316517689	0.00350433921124603	-0.00947312297440472	0.3505859375	-0.462646484375	0.431396484375	0	0	0	0.169991694041093	-0.230598253176823	0.633865368773018	0.71843020806414	0.0900782798040885	0.832376482143614	0.546841197681519	-0.989175632945394	0.138635036454572	-0.0480821573384451	-0.11583380635469	-0.536590829814917	0.835854539177675	-3.29228573581568	-33.1505746562381	83.8235903751356
42267	1662097782336	5.33394139299405	-0.493382897921909	8.11196884872875	0.0295383777810064	0.0187463900272776	-0.0917217731848723	0.0082841853765934	0.00434439289538423	-0.0114672768141866	0.348388671875	-0.47314453125	0.43505859375	0	0	0	0.170019118194561	-0.230548299184847	0.633838056424372	0.718463846981526	0.0901935999422985	0.832384219706569	0.546810410757637	-0.989174693821222	0.138685635353038	-0.0479553922975943	-0.115752061031934	-0.536565751171477	0.835881962382637	-3.28351739509922	-33.1484677964225	83.8158014761622
42268	1662097782337	5.33069696762409	-0.512118513262099	8.12641061639839	0.0460977476984056	0.00608675931567361	-0.0805250679784386	0.00284294071842753	0.00686088365829085	-0.00838889587107211	0.343994140625	-0.4716796875	0.434814453125	0	0	0	0.169983656983071	-0.230545075095066	0.633831061926287	0.718479442743818	0.0902143065736111	0.83241138640485	0.546765637794657	-0.989166966261234	0.138727482592114	-0.0479937332492566	-0.115801950531883	-0.536512785828269	0.835909049416144	-3.2860306068793	-33.1454039119937	83.8145930232688
42269	1662097782338	5.33028829692889	-0.511302363060837	8.12673006936654	0.0460409866594266	0.00609559083774003	-0.0805248048148481	0.00560348998036325	0.00431419512018869	-0.00935616213438834	0.355224609375	-0.466552734375	0.444091796875	0	0	0	0.169998802077814	-0.230505618624845	0.63380841203903	0.718508499534312	0.0903081132218816	0.832422104175919	0.546733833931684	-0.989164820329635	0.138774608241343	-0.0479016318062527	-0.115747150757778	-0.536483968620495	0.835935134148972	-3.27963627446703	-33.1432275885122	83.8082903480828
42270	1662097782341	5.31456883834228	-0.50602943788692	8.08786515330364	0.0438705317228002	0.0152332048881116	-0.121861095425055	0.00414193283631116	0.00516658082795671	-0.00787612260790803	0.349609375	-0.4755859375	0.437255859375	0	0	0	0.169966334073324	-0.230488795971284	0.633811334760828	0.718518999151783	0.0903162137208105	0.832460300414385	0.54667433612081	-0.989161643199239	0.138789274420745	-0.0479247423482267	-0.115767979867137	-0.536420903339677	0.835972720426766	-3.28106790109817	-33.1391563260538	83.8080211915068
42271	1662097782341	5.30593257557407	-0.510621592663071	8.12125624232022	0.0445248799511956	-0.0101174488657683	-0.0984517786660852	0.00414173238339566	0.00516616153780945	-0.00787640178394594	0.35107421875	-0.460693359375	0.447021484375	0	0	0	0.169971545199175	-0.230451783312398	0.633793433045213	0.718545429057553	0.0903957195937969	0.832478257155637	0.54663384933814	-0.989159239969692	0.138831116102736	-0.0478531000484797	-0.115726452731001	-0.536382207539346	0.836003298781481	-3.27605418093771	-33.1363860410463	83.8027453937775
42272	1662097782342	5.31656185682851	-0.538391067987566	8.08350656536809	0.0776056980869574	0.015683541467662	-0.122872886091116	0.00519253029330236	0.00164152136862517	-0.0144114337181058	0.351318359375	-0.466064453125	0.42724609375	0	0	0	0.169966573563456	-0.230427536556519	0.63377134268699	0.718573864996719	0.0904740711704492	0.832493088791141	0.546598298168618	-0.989153004163859	0.138890498119658	-0.0478096630994779	-0.115718524011745	-0.536343813842444	0.836029028535185	-3.27298641363215	-33.1339535446504	83.7975253431724
42273	1662097782342	5.34281776008733	-0.516605345818611	8.0756503599143	0.0604569942269855	0.0449438306137238	-0.116139712195331	0.00682108524809443	0.00519401171064962	-0.00998914551365186	0.346923828125	-0.470703125	0.434814453125	0	0	0	0.169983640658048	-0.230379483438005	0.633749351767798	0.718604630275487	0.0905741054894682	0.832508950573431	0.546557571194387	-0.989151923884281	0.138934642085064	-0.0477036340829566	-0.115649482881715	-0.536307759074787	0.836061711038947	-3.26561615042073	-33.1311669901083	83.7908383843612
42274	1662097782343	5.30785999501725	-0.541610434115798	8.11703400674294	0.0768148028233432	-0.00980169158934686	-0.099450826144178	0.00568336856158967	0.00173701502874647	-0.00821245257023015	0.351318359375	-0.46435546875	0.438720703125	0	0	0	0.169966971929589	-0.230406211822466	0.633742882781555	0.718605708668134	0.0905658721546894	0.832499614514787	0.546573155793066	-0.989145399063715	0.138962373953621	-0.0477581211550169	-0.115711720719829	-0.536315066409573	0.836048412013414	-3.26938994196388	-33.1322332836285	83.7913293166639
42275	1662097782343	5.30499184641069	-0.506297010403321	8.12214152008736	0.0422393000798238	-0.00980061746434494	-0.098441246853282	0.0117761533356271	0.00614510640517679	-0.0113711833839657	0.352294921875	-0.462646484375	0.4375	0	0	0	0.169999967486956	-0.23033828972668	0.633722599611852	0.718637565175533	0.0906798780539685	0.832518728434468	0.546525138051284	-0.989148735492614	0.13899135559126	-0.0476044340819876	-0.115593852732227	-0.536277884940971	0.836088566680444	-3.25873548290183	-33.1289479658046	83.7837164926388
42276	1662097782344	5.33370102740089	-0.518317360996014	8.10954297271545	0.0591915089991438	0.0194394545453676	-0.0927169353906212	0.00616724611454013	0.00425389263954269	-0.0141965683874354	0.355224609375	-0.469482421875	0.4326171875	0	0	0	0.170012331606274	-0.230307627879975	0.633690254298707	0.718672989090962	0.0907901162942781	0.832521864824158	0.546502057976893	-0.989142412034496	0.139064937417277	-0.0475208574807776	-0.11556142737891	-0.536253939631996	0.836108407284195	-3.25294956257445	-33.1273688978115	83.7762419786456
42277	1662097782345	5.31801395154435	-0.512422267010452	8.07069857293912	0.0579232101675864	0.0282811164047153	-0.134057850068432	0.0132364074524939	0.00528998490862265	-0.0128530487274904	0.353271484375	-0.47216796875	0.43310546875	0	0	0	0.170055224214783	-0.230236412552857	0.633665631243972	0.718707369401643	0.0909181242299397	0.832534508305006	0.546461514809461	-0.989146127341339	0.139098176994878	-0.0473459176944799	-0.115428910815878	-0.536225689088134	0.836144830104101	-3.24085909065722	-33.124595127241	83.7676298146313
42278	1662097782346	5.33044140023346	-0.481202529989831	8.11500059607782	0.0228610106157984	0.0189213292659445	-0.0917041154697777	0.00828045449010651	0.00433640513702198	-0.0114725013075732	0.349609375	-0.4658203125	0.43603515625	0	0	0	0.170044375174018	-0.230268907266484	0.633641946010542	0.718720408137929	0.0909482292045454	0.83251093118375	0.546492423610907	-0.989134661016283	0.139165589455302	-0.0473873515588539	-0.115503428437262	-0.53624480246537	0.836122281635955	-3.24377650102675	-33.1267097524035	83.7654072173863
42279	1662097782347	5.33266147768334	-0.513805894433262	8.11051366796671	0.0573061820539166	0.0189803911558722	-0.0927047299403387	0.0119347791913171	0.00697996144836079	-0.0133691188005981	0.34912109375	-0.470947265625	0.434814453125	0	0	0	0.170077552351787	-0.230195993081242	0.633615302446506	0.718759403041789	0.0910829065499263	0.832531570960294	0.546438548684849	-0.98913625521808	0.139210549383295	-0.0472217275579315	-0.115383589593892	-0.536201087554648	0.836166861910732	-3.23229125597307	-33.1230239331649	83.7564013838472
42280	1662097782348	5.33509240255625	-0.492622518199974	8.09673204636181	0.0383340527077081	0.0317970726493057	-0.103903863459239	0.00722261290836395	0.00429137138342543	-0.0128366877155882	0.349609375	-0.472412109375	0.43212890625	0	0	0	0.170057216757172	-0.230190427603509	0.633604141624812	0.718775835559602	0.0911163175111986	0.832547605736004	0.546408547578134	-0.989129779505588	0.139252669489379	-0.0472331804487857	-0.115412720176003	-0.536165252719093	0.836185820137035	-3.23300038918116	-33.1209714933475	83.7542485537009
42281	1662097782349	5.30286702587895	-0.497737116227224	8.12405791341513	0.0384554845003438	-0.0100974568099824	-0.0984258350853118	0.00681747481803069	0.00518723559762909	-0.00999397613248156	0.352783203125	-0.465087890625	0.435546875	0	0	0	0.170073376699616	-0.230143069791646	0.633582523679691	0.718806232341194	0.0912147062291034	0.832563715439886	0.546367584232878	-0.989128551453809	0.139296464451329	-0.0471296476779736	-0.1153455073526	-0.536128860185956	0.836218427929736	-3.22580326994545	-33.1181691808233	83.7476777109366
42282	1662097782350	5.30801787334445	-0.511000394618325	8.10535899379402	0.0538500981741739	0.00243264920211226	-0.110619865919785	0.00706085694172314	0.0034514060898526	-0.0108426164391522	0.355224609375	-0.46533203125	0.429931640625	0	0	0	0.170057850579568	-0.230160296245823	0.633569013178924	0.718816298526805	0.0912330871430389	0.832558335292466	0.546372713580563	-0.989120596365752	0.139341265991484	-0.0471641541528104	-0.115399175280459	-0.53612557290893	0.836213130976584	-3.22818048838362	-33.118520075863	83.7463876788172
42283	1662097782351	5.30768166889766	-0.509812152715432	8.10565398175228	0.0537655699081084	0.00246863735487653	-0.110619406214811	0.00909160070528856	0.00611051733170337	-0.0092642073229855	0.354736328125	-0.46435546875	0.439453125	0	0	0	0.17007806274238	-0.230103380467861	0.6335535384978	0.718843377049534	0.0913246963083586	0.832580455949989	0.546323699114633	-0.989122604671774	0.139366732861431	-0.0470466438638882	-0.115309465229491	-0.536084599798987	0.836251773742124	-3.22000588091393	-33.1151670882904	83.7403231101629
42284	1662097782352	5.3310083717564	-0.507546392219388	8.11199440204414	0.0534292114468614	0.0184000013823055	-0.0926815296661107	0.00957904329240499	0.00263929100672067	-0.0109608375588857	0.355224609375	-0.471435546875	0.442626953125	0	0	0	0.170110687643173	-0.230107472006312	0.633519781612088	0.718864098131631	0.0914064752660721	0.832541772324592	0.546368972045504	-0.989116733503895	0.139430080511477	-0.0469823387151754	-0.115295029303164	-0.536128202935819	0.836225810552862	-3.21571352546872	-33.1182641199631	83.7344734885774
42285	1662097782353	5.29335302506143	-0.498170030914543	8.15826390209999	0.0366311752065345	-0.0362019324566264	-0.0750091504194312	0.00803371792679876	0.00606536801816889	-0.0106285332124956	0.3525390625	-0.46337890625	0.437255859375	0	0	0	0.170129094338491	-0.230053076395467	0.633497845325348	0.718896482999248	0.0915121240182458	0.832561302910099	0.546321524428891	-0.989116189057877	0.139473142455413	-0.0468658412624152	-0.115215865666543	-0.536086671565569	0.836263346601093	-3.2076128302981	-33.1150183250879	83.7274353833345
42286	1662097782354	5.33854375014219	-0.499719233146519	8.07953852550208	0.0517869117666669	0.0438028116513011	-0.116084309876292	0.00803331381139043	0.00606451915350057	-0.0106290987283633	0.354736328125	-0.462158203125	0.437255859375	0	0	0	0.170123563748833	-0.23002789169535	0.633484695569604	0.718917437943103	0.091568619042558	0.832580059236445	0.546283473087441	-0.98911271802382	0.139510227072967	-0.0468287047181708	-0.115200777124859	-0.536047891054417	0.836290284199178	-3.2049733925451	-33.1124153969283	83.7237341757292
42287	1662097782355	5.33000640653236	-0.503643168397597	8.1128960361408	0.0524000217748967	0.0184640898326334	-0.0926760484059574	0.0120969483880496	0.00182653841183929	-0.0110793457912291	0.357666015625	-0.468017578125	0.431396484375	0	0	0	0.170170594917602	-0.229975172081595	0.633462284468148	0.718942920549208	0.0916739087648712	0.832576426007802	0.546271351351914	-0.989116473405414	0.139535005563568	-0.0466753067522108	-0.115084736128681	-0.53604708475884	0.83630677770286	-3.19443368888046	-33.1115862174775	83.7165479328068
42288	1662097782357	5.30619036480858	-0.503207111529502	8.1070429879706	0.050968786879636	0.00107935412477324	-0.110604056487189	0.00721974920591409	0.00428318983489006	-0.0128414767755088	0.35791015625	-0.467529296875	0.44677734375	0	0	0	0.170194206774896	-0.229990739071495	0.633414061350547	0.718974838784375	0.0917817736495076	0.832531362482841	0.546321916554897	-0.989103728090221	0.13964111772734	-0.0466280314605479	-0.115108301628411	-0.536089440972609	0.836276383843224	-3.19132062541886	-33.1150451491383	83.708876189006
42289	1662097782358	5.31420419325996	-0.496509670014259	8.07420189767564	0.0502063051614706	0.0264743255944045	-0.134009632782012	0.0118516662541245	0.00356032736785233	-0.0102328007501677	0.349365234375	-0.468017578125	0.437744140625	0	0	0	0.170234210514775	-0.229933638420963	0.633395470240153	0.719000009577305	0.0918814004035081	0.832537555523019	0.546295732093568	-0.989107841152548	0.139660983699335	-0.0464810520823333	-0.1149934208137	-0.536074648044366	0.836301670985819	-3.18118574786845	-33.1132539742452	83.7021486509269
42290	1662097782359	5.35026197687323	-0.464366302271761	8.12448989467102	0.0165764120228542	0.0344148109367673	-0.0737543593545471	0.00721887779132284	0.00428094575750844	-0.012842836182031	0.35498046875	-0.472412109375	0.434814453125	0	0	0	0.170229589025848	-0.229903967919893	0.633378529795906	0.719025514532243	0.091951607056531	0.832557730611524	0.546253171303116	-0.989103562509184	0.139707050027335	-0.0464336387148491	-0.114974104003305	-0.536031310066538	0.83633210510956	-3.17783200016626	-33.1103426377099	83.6975266689337
42291	1662097782359	5.31089228546867	-0.513454204339073	8.0888541398325	0.0669489522139226	0.0140609875023321	-0.122790906319478	0.00973719855949324	0.00346988679515875	-0.0129605417235367	0.351318359375	-0.472900390625	0.43603515625	0	0	0	0.170265436367927	-0.229851013596979	0.633347855851965	0.719060975310578	0.092078010072321	0.832560087620155	0.546228286124989	-0.989102820138954	0.139760349332317	-0.0462888317812888	-0.114879289927685	-0.5360137547269	0.836356385453762	-3.16785011803272	-33.1086404318705	83.6889504376892
42292	1662097782360	5.33162823468102	-0.477056994106601	8.09994535061225	0.030679216886014	0.0304079572065064	-0.103872206856025	0.0070574223137776	0.00344258435482585	-0.0108479617226501	0.3505859375	-0.461669921875	0.43798828125	0	0	0	0.170225197611529	-0.229896790244438	0.633338286634018	0.719064296580568	0.0920601610375825	0.832553446052833	0.54624141752094	-0.989090352251296	0.139811993563204	-0.0463991545105004	-0.115000877532048	-0.53601060243379	0.836341695866841	-3.17544045660223	-33.1095386467229	83.690114016763
42293	1662097782361	5.3286343444352	-0.495497830317791	8.11429878068344	0.0481869372929217	0.0177675788512768	-0.0926529508722442	0.00957587485729344	0.00263188076867963	-0.0109654686768902	0.3466796875	-0.466552734375	0.437255859375	0	0	0	0.170260156048698	-0.229849768587164	0.633314083002774	0.719092369180104	0.0921647123015648	0.832554133828365	0.546222738497466	-0.989091163697996	0.139849503065256	-0.0462686328622937	-0.114910120097903	-0.535999748822425	0.836361126285401	-3.1664526740366	-33.1082609653443	83.6830110537956
42294	1662097782362	5.31042802404306	-0.50956093065148	8.08940511994566	0.0639256394856413	0.0143872358069335	-0.122770968374919	0.00966005513318399	5.9393847342863E-05	-0.00981698065395264	0.343017578125	-0.467529296875	0.433349609375	0	0	0	0.170271244429149	-0.229816124026249	0.63331935799579	0.71909585122284	0.0921822798507043	0.832572490812104	0.546191793076805	-0.989096800523437	0.139828588216699	-0.0462113093476677	-0.114847492248753	-0.535976691153873	0.836384504916201	-3.16244941477769	-33.1061442795297	83.6819548868381
42295	1662097782362	5.33121343327555	-0.473108498530516	8.10044995274265	0.0298120570290386	0.0309541637801006	-0.103871231494498	0.00949020735860325	0.00520164669494353	-0.0121159386735077	0.34814453125	-0.465087890625	0.438720703125	0	0	0	0.170298846585817	-0.229758644451357	0.633293519501727	0.719130437617913	0.0923005669139806	0.832586027353357	0.546151180904439	-0.989096555926105	0.139875242017311	-0.0460751530189225	-0.114754557218771	-0.535943489303261	0.836418536302831	-3.15302241605985	-33.1033664593145	83.6740153605829
42296	1662097782363	5.31977332390829	-0.496849944555242	8.14802050427868	0.0466965909268408	-0.00624797357660234	-0.0692348682171921	0.00681068842499934	0.00517491730326811	-0.010002985512917	0.3544921875	-0.47216796875	0.436279296875	0	0	0	0.170250575180229	-0.229727287521671	0.633320501371571	0.719128123188907	0.0922610318207961	0.832654761386474	0.546053065505357	-0.989099572727107	0.139839768386527	-0.0461180486215312	-0.114760346977593	-0.535845955026291	0.836480230037474	-3.15571963039546	-33.0966558548145	83.6772207644585
42297	1662097782364	5.32218467221398	-0.476057163588603	8.1341788142883	0.0290041806510045	0.00647636084918446	-0.0804593651633052	0.00892372248611885	0.00526480734827896	-0.00727650447769073	0.3505859375	-0.465576171875	0.43505859375	0	0	0	0.170269590671829	-0.229675233736648	0.633312201170263	0.719147557424302	0.0923298857137848	0.832676429045615	0.546008385206604	-0.989103261188797	0.139847844682649	-0.04601433519354	-0.114673148163662	-0.535810176134665	0.836515107000928	-3.14850611472066	-33.0936001147352	83.6727036833983
42298	1662097782365	5.32464617275243	-0.508987090744083	8.12962011148997	0.0618179340786719	0.00629331088441483	-0.0814085818098338	0.00624416963391883	0.00165633994501085	-0.013061574261529	0.349853515625	-0.47607421875	0.43310546875	0	0	0	0.170255185210113	-0.229708035904996	0.63328925615047	0.719160697058817	0.0923578725701055	0.832655517391551	0.546035541637843	-0.989091454180576	0.139915779906908	-0.046061587032956	-0.114752423247952	-0.535824937727287	0.836494780299478	-3.15180921374095	-33.0954573635002	83.6706436634939
42299	1662097782365	5.33556448642924	-0.482819309354663	8.08253354870731	0.0434419140316065	0.0443872307871572	-0.116045990120659	0.00811164318315389	0.00348249919335803	-0.00948800098017388	0.354736328125	-0.47119140625	0.43603515625	0	0	0	0.170279072127113	-0.229663516613285	0.633270659730444	0.719185635463416	0.0924458813227753	0.832664542656431	0.546006884965025	-0.989092104697871	0.139946618240195	-0.0459538079756995	-0.114675923588126	-0.535802858751135	0.836519413464697	-3.14435673349107	-33.0934975132286	83.6647294834129
42300	1662097782367	5.32704868545344	-0.486948794861519	8.11585731238478	0.0413536497229925	0.018841638798449	-0.0926234995763782	0.00811132760899793	0.00348183362310308	-0.00948844450418055	0.349609375	-0.465087890625	0.44189453125	0	0	0	0.170225454871194	-0.229724885460631	0.633276522233684	0.71917356590854	0.0923746467754207	0.832661423156377	0.54602369822226	-0.989081515647452	0.139968281803011	-0.0461154582938398	-0.114824561996353	-0.53580204784632	0.83649954302799	-3.15547003273702	-33.0946473785728	83.6695479814815
42301	1662097782367	5.3086811937476	-0.501209328144886	8.09107326050304	0.0576679149425717	0.0150436832037977	-0.122732702943861	0.00811101211197472	0.00348116804250086	-0.00948888804119903	0.35498046875	-0.47119140625	0.441650390625	0	0	0	0.170248410680855	-0.229681361744902	0.633258197196369	0.719198169082246	0.0924610555012235	0.832670498359737	0.545995232925112	-0.989082045560074	0.139999068688494	-0.0460105196347004	-0.114750426431889	-0.535779900638034	0.836523901455301	-3.14821253113915	-33.0927006344112	83.6637430135526
42302	1662097782368	5.32664313934605	-0.484582205104068	8.11626513261291	0.0403227218904141	0.0193148166201237	-0.0926200969421167	0.00941300677607943	0.00179042616321499	-0.00897256567961315	0.35400390625	-0.466552734375	0.4404296875	0	0	0	0.170246250973448	-0.229653684323061	0.633263640611895	0.719202725791065	0.0924726935116246	0.832694515388415	0.545956632890158	-0.989085230501379	0.139986751016909	-0.0459795209170863	-0.114713590122269	-0.535745791940341	0.836550798612659	-3.14599479326352	-33.0900608435033	83.6631332507335
42303	1662097782368	5.32118598939991	-0.469038556074313	8.13523985871553	0.0232651564266154	0.00667989893658981	-0.080444091324761	0.00722551405290905	-0.00170723221635454	-0.00855251544202529	0.351806640625	-0.471923828125	0.431884765625	0	0	0	0.170281199833413	-0.22963192268149	0.633243613372868	0.71921903422488	0.0925434124161525	0.832677721449699	0.545970263860323	-0.98908571870673	0.140013678211534	-0.0458869367474885	-0.114652334772411	-0.535764857110854	0.83654698613779	-3.13968699789806	-33.0909930333763	83.6581997106054
42304	1662097782369	5.31399153959043	-0.512109439324184	8.0724814663444	0.0718361396777633	0.0279916935071202	-0.134889313454122	0.00932622855143417	0.00435964772908099	-0.0101241516451761	0.352294921875	-0.47119140625	0.434326171875	0	0	0	0.170265399199482	-0.22964991661253	0.633237349434355	0.719222544777799	0.0925427501624225	0.832674286360728	0.545975615047071	-0.989080025273369	0.140040306233589	-0.0459283815873599	-0.114701974689222	-0.535763236386797	0.836541219270598	-3.14253868577207	-33.0913589911079	83.6582187747425
42305	1662097782369	5.33194042038066	-0.495630564945402	8.09766769600317	0.0552307864139009	0.0319166744981715	-0.104783816257342	0.00657364956014947	0.000929837953085672	-0.00486219240819009	0.347412109375	-0.476318359375	0.436767578125	0	0	0	0.170285012442477	-0.229624345495429	0.633232191115903	0.719230607404755	0.0925793041806958	0.832676777829501	0.54596561805749	-0.98908311594864	0.140040013344035	-0.045862669001393	-0.114645811884896	-0.535759440725109	0.836551348986523	-3.13801353074747	-33.090675316777	83.6557530455683
42306	1662097782370	5.32623450403563	-0.480294248029955	8.11678816877821	0.035404753762412	0.0195475330909667	-0.0926014046304537	0.00575014942708103	0.00512140030753426	-0.0113719598014315	0.35595703125	-0.470947265625	0.438232421875	0	0	0	0.170200072970534	-0.229671146286925	0.633249378223215	0.719220637012028	0.0924927790863241	0.832711950671821	0.545926637035802	-0.989072134100864	0.140054320281474	-0.0460554113612939	-0.114810275507256	-0.535701030966738	0.836566199448151	-3.15111899179533	-33.0880095326334	83.661899678671
42307	1662097782371	5.33151137909119	-0.493548931262133	8.09807732490619	0.0521583499150398	0.0323285973676801	-0.104768185593134	0.00835508411917187	0.0017412296471613	-0.0103381690805403	0.352294921875	-0.4619140625	0.434814453125	0	0	0	0.170228600877553	-0.229633133098756	0.633227854546595	0.719244973463726	0.0925822168191301	0.832711648954656	0.545911936876336	-0.989072156804776	0.140089415339173	-0.0459480613679905	-0.114737970011691	-0.535692323451761	0.83658169525304	-3.14373072262384	-33.0870042579565	83.6558185940904
42308	1662097782372	5.3049150112291	-0.513013703519178	8.10638070593802	0.0682226746728707	0.00257541850087769	-0.111447576875342	0.00932472247495778	0.00435704801695518	-0.0101260993609882	0.343505859375	-0.468017578125	0.435302734375	0	0	0	0.170244062110849	-0.229636761842805	0.633206023019562	0.719259375564962	0.0926341800442026	0.832690147149843	0.545935918883444	-0.989067327734247	0.140134183455496	-0.0459154857961615	-0.114737656835819	-0.53571403702613	0.836567833852696	-3.141558341604	-33.0886442804011	83.6521243065926
42309	1662097782373	5.32830847126621	-0.510641790709348	8.11269224490353	0.0685024769633625	0.0192087484029121	-0.0935135318239002	0.00957060136269777	0.00261992153997253	-0.0109730968879601	0.356689453125	-0.4736328125	0.43701171875	0	0	0	0.170274947484845	-0.229591442601496	0.633184215242162	0.719285729951154	0.0927310381046628	0.832693399244136	0.545914514761494	-0.989068082571894	0.140168383654401	-0.0457946750318261	-0.114652878767127	-0.53570003460795	0.836588423486395	-3.13323194478629	-33.0871805465512	83.6455658636726
42310	1662097782374	5.34625997711223	-0.493987794999971	8.13787487203117	0.0497308230308684	0.0233743810732207	-0.0634049520530748	0.00689183640676679	0.00259506263484981	-0.00885903332006608	0.35595703125	-0.4697265625	0.438720703125	0	0	0	0.170219859209408	-0.229624247491879	0.633202294600579	0.71927238137376	0.0926551181526998	0.832716630499107	0.545891969505252	-0.989063058815642	0.140160107286582	-0.045928313834264	-0.114757547753313	-0.535666087796892	0.836595808989035	-3.14232941291104	-33.0856388018886	83.6509014935708
42311	1662097782374	5.30169440534625	-0.475344253153004	8.1116646763086	0.0310462701463677	0.00299551748134618	-0.110520253289859	0.00713802702190593	0.000858138964276832	-0.00970571620875669	0.353271484375	-0.465087890625	0.43310546875	0	0	0	0.170245237538086	-0.229594504281203	0.63318123129204	0.719294411933643	0.0927357838867284	0.832712700981671	0.545884266132231	-0.989062184656841	0.140196174870192	-0.0458369657983934	-0.114699909628346	-0.535662757876238	0.836605845398938	-3.1360544913986	-33.0851120172548	83.6453894114303
42312	1662097782375	5.33049727228017	-0.487689640721943	8.09909983482851	0.0470584105506525	0.031604263009603	-0.104739739362261	0.00419801655838754	0.0085419928299315	-0.0110467633118115	0.3515625	-0.474365234375	0.437744140625	0	0	0	0.170224000163399	-0.229614983030417	0.633153075714477	0.719317685066626	0.0927882845624785	0.832704447613726	0.54588793462786	-0.989048371249281	0.140281944963338	-0.0458725979910377	-0.11477653757235	-0.535653132952307	0.836601498672624	-3.13850376222387	-33.0853628819202	83.6417588152273
42313	1662097782375	5.32725655622489	-0.506256715885448	8.11365782987889	0.0644327547678232	0.0190148928358353	-0.0934853185959881	0.00932281252102163	0.00435379672912422	-0.0101285129729999	0.34619140625	-0.46142578125	0.43310546875	0	0	0	0.170246611223051	-0.229565870715752	0.633135788253711	0.719343225450784	0.0928771692697413	0.832718257057847	0.545851752576632	-0.98904950322515	0.140310329998839	-0.0457612441450243	-0.114694862999715	-0.535624229902044	0.836631204739172	-3.1307894018862	-33.0828886569641	83.6358226924303
42314	1662097782376	5.29798973001895	-0.4916039504693	8.12665928320961	0.0451958420745956	-0.00984728846350833	-0.0992522870461147	0.00965662353347345	4.7360699866024E-05	-0.0098230954459657	0.35205078125	-0.4677734375	0.429931640625	0	0	0	0.170222317597749	-0.229578196605977	0.633151281689039	0.719331403965047	0.0928266122773485	0.832732535366928	0.54583857008687	-0.989049866151653	0.140287634174356	-0.0458229414503195	-0.114732655850495	-0.535607976265412	0.836636428469596	-3.13498251951425	-33.0819872205309	83.6393667528671
42315	1662097782376	5.33811652869032	-0.47883910166456	8.06665248379831	0.0441399677889402	0.0575332928327962	-0.128143039039893	0.00794697329051541	0.00263970505633037	-0.00749696285874884	0.34912109375	-0.467529296875	0.442138671875	0	0	0	0.170241650627245	-0.229542077458296	0.633140888425323	0.719347503277681	0.0928861001602455	0.832741390313724	0.545814940483849	-0.989051878933352	0.140300791591409	-0.0457391370407202	-0.114667140783341	-0.535590762371039	0.836656430135682	-3.12918577359172	-33.0803714195226	83.6353911076923
42316	1662097782377	5.33248580604384	-0.517123631647656	8.09515445942619	0.0776366841444974	0.0323351590370701	-0.105613944731742	0.00713720408605303	0.0008550087584249	-0.00970728848030447	0.357421875	-0.460693359375	0.437744140625	0	0	0	0.170220527821843	-0.229562873202811	0.633143422412315	0.719343635414218	0.0928605878057809	0.832742755543587	0.545817198631593	-0.989048009323113	0.140308757128147	-0.0457983397858812	-0.114721168431782	-0.535586553007849	0.836651718309846	-3.13324560090771	-33.080525831219	83.6371352354964
42317	1662097782377	5.31596612672964	-0.472744385544508	8.15193861036397	0.0265871197928804	-0.00569675182320204	-0.0691589056624142	0.0084403083300974	-0.000834483000522214	-0.00918970291730446	0.357177734375	-0.46728515625	0.430419921875	0	0	0	0.170254068154397	-0.229536491673566	0.633124836069903	0.719360475157294	0.0929318818832999	0.832730922823634	0.545823117413442	-0.989049008812883	0.140332988456674	-0.0457024125957558	-0.114654801451497	-0.535598602055792	0.836653102534138	-3.12669071472899	-33.0809305576387	83.6322004937206
42318	1662097782378	5.31197935018876	-0.496226568175809	8.07479744282039	0.0586228879390128	0.0269571132361956	-0.13479731791687	0.00560565121513537	-0.00528425305593257	-0.0129754190622873	0.352783203125	-0.47216796875	0.427490234375	0	0	0	0.170332071864534	-0.229612361233955	0.633044814003759	0.719388220869545	0.0930648540630269	0.832589266524338	0.546016525580218	-0.989030663383087	0.140482497514562	-0.0456400567493256	-0.114705186570783	-0.535779601291927	0.836530297725806	-3.12289061503781	-33.0941568368935	83.6220880777557
42319	1662097782379	5.28294341911876	-0.535610076389801	8.09709386667097	0.0931020093725933	-0.0148601891031181	-0.130207849125385	0.00452883526864139	0.00423085284079536	-0.0107448194003374	0.357421875	-0.463134765625	0.434326171875	0	0	0	0.17033785107559	-0.229579468831608	0.633019724225052	0.719419427541394	0.0931585924660732	0.832601228505093	0.545982299110101	-0.989025521992498	0.14054209046598	-0.0455679454761717	-0.114673421058269	-0.535745382713901	0.836556567963894	-3.11786847251823	-33.0918161039145	83.6158079875348
42320	1662097782380	5.43863790975919	-0.428564682111675	8.06262711692633	0.005570891632433	0.146469665305913	-0.0788843762715743	0.0328895354879017	-0.00730958446683007	-0.0157202143188168	0.3486328125	-0.4697265625	0.437744140625	0	0	0	0.170466840798315	-0.229622055571442	0.632983124284702	0.719407486862741	0.0932121519318467	0.83245970455461	0.546188918804736	-0.989031490118125	0.140546841118039	-0.04542352921628	-0.114578384902895	-0.535964015344867	0.836429535566775	-3.10847766936101	-33.1059476801394	83.6110908718725
42321	1662097782380	5.2347927946695	-0.441447230657313	8.17135990364005	-0.0121706105459883	-0.0835767893592419	-0.0986809465613056	-0.015605475516422	0.0047300860262153	-0.0055070763842841	0.351806640625	-0.46630859375	0.4345703125	0	0	0	0.170392370632245	-0.229656884436925	0.632953751019242	0.719439854700669	0.0932545290027935	0.832480747388607	0.546149611414101	-0.9890078712735	0.140671978201991	-0.0455502481639578	-0.114747650867138	-0.535898497643019	0.836448310922097	-3.11706254479604	-33.1032591099617	83.6083705432764
42322	1662097782381	5.38886205771816	-0.610006710312752	8.09310334945847	0.176425014242647	0.0632783501099609	-0.0723006098228716	0.0128260856705879	-0.00340851245792643	-0.0136343439900816	0.359375	-0.468017578125	0.436279296875	0	0	0	0.170394648442073	-0.229668769517405	0.632953868279946	0.719435418032861	0.093243313875629	0.832470203162915	0.546167598144917	-0.989007520123081	0.140670128823511	-0.0455635819133025	-0.11475979068247	-0.535915362443244	0.836435840181327	-3.11801958578569	-33.1044893668175	83.6090525853393
42323	1662097782381	5.31929114782335	-0.391409137391588	8.12830919129279	-0.0487427811194171	0.0172547719450169	-0.090815329192166	0.0152337009928388	0.00791488241453363	-0.0113115449257439	0.34814453125	-0.46728515625	0.439453125	0	0	0	0.170427030038361	-0.229589807772623	0.632942162699314	0.719463248732518	0.09334547768889	0.832500631139336	0.546103763901733	-0.989013867402401	0.140677692219636	-0.0454021695241794	-0.114621952002128	-0.535866108337115	0.836486295198467	-3.10680840855603	-33.1001233085807	83.6023401582462
42324	1662097782382	5.33572943443236	-0.541208090212274	8.09077893138368	0.104944530517701	0.0299721845353113	-0.10641584183945	-0.00381995372484787	-0.00110117492340145	-0.00830116713044138	0.3515625	-0.462646484375	0.435791015625	0	0	0	0.170389930174327	-0.229652880366753	0.632918923975811	0.719472349647812	0.0933463804251105	0.832474254238835	0.546143817406208	-0.988996407238932	0.140761814736979	-0.0455216210216429	-0.114771772357214	-0.535884994697041	0.836453652468884	-3.11508755801904	-33.1028628149351	83.6020777694315
42325	1662097782383	5.32449914533511	-0.457653281585197	8.11923452229085	0.0186949197818158	0.0172378255878759	-0.0925505327863867	0.0142651374358266	0.00529711219091959	-0.0115231626169624	0.356201171875	-0.472412109375	0.437744140625	0	0	0	0.170427172068048	-0.229586376675	0.632903187793169	0.719498595931484	0.0934473010529783	0.832490396111351	0.546101952302205	-0.989001423799632	0.140776267804264	-0.0453676773199134	-0.114646350348433	-0.535856121366051	0.836489349332265	-3.10444146007136	-33.0999994041273	83.5953413155414
42326	1662097782383	5.33241357606739	-0.505173653404142	8.09595654669079	0.0686687143857437	0.0296529805256423	-0.1055377982052	-0.00107671529120518	0.00591756208760696	-0.00567109927676555	0.351318359375	-0.46533203125	0.433837890625	0	0	0	0.170374808513047	-0.229630270996048	0.632895689910249	0.719503585091453	0.0934259686706218	0.832495008859204	0.546098570408741	-0.988987862658208	0.140830940634344	-0.0454934465038283	-0.114780642499974	-0.535834588641458	0.836484726532848	-3.11304792120733	-33.099768099798	83.5968264268099
42327	1662097782384	5.35312965633518	-0.522890672572052	8.11639995658001	0.0863814250383262	0.0336062334184057	-0.0763241439955902	0.0100591575623942	-0.000866554819283072	-0.0126734214336931	0.350341796875	-0.474853515625	0.43408203125	0	0	0	0.170417541959398	-0.229598605667845	0.632865741229528	0.719529912683204	0.0935308677067638	0.832476403023708	0.546108977398037	-0.988986923084585	0.140877629941035	-0.0453691453510299	-0.114703281355443	-0.535851221693957	0.836484683335797	-3.10455900228782	-33.100479886933	83.5895546539107
42328	1662097782384	5.34457171523017	-0.47305716793893	8.14022710204727	0.0320752112318538	0.0208946442135854	-0.063325248506727	0.00670660810342997	0.00772023964818827	-0.0111748469575438	0.35205078125	-0.470703125	0.432861328125	0	0	0	0.170339267936798	-0.229641514967773	0.6328772974978	0.719524589374083	0.0934622018303741	0.832507620117552	0.546073144620047	-0.988975490307583	0.140901720221274	-0.045543219139197	-0.11485772242167	-0.535796386405222	0.836498616804123	-3.11639543026546	-33.0980291245319	83.5944599667001
42329	1662097782384	5.32620558906037	-0.487642625965963	8.11548767744624	0.0483083292581995	0.0171129391952439	-0.0933882638560526	0.00234353257965229	0.000726383959756013	-0.0103247714152309	0.349365234375	-0.476318359375	0.436767578125	0	0	0	0.170345576941708	-0.229631359629291	0.632848646214598	0.719551536775199	0.0935440593183089	0.832501058979715	0.546069130938479	-0.988967804739557	0.140969950801495	-0.0454989467970995	-0.11485725991366	-0.535788633482157	0.8365036461824	-3.11335327812577	-33.0977546153273	83.5888463533086
42330	1662097782385	5.33152373935731	-0.501082014513488	8.09679683138776	0.0616931539817572	0.0301344256854319	-0.105492441910503	0.00906649753418644	0.00608066976371987	-0.00929274300065289	0.349853515625	-0.463623046875	0.43359375	0	0	0	0.170245645007305	-0.229692298093074	0.632882217948097	0.719526209917239	0.0934030928036393	0.83254246032429	0.546030140204635	-0.988958914092552	0.140953037122288	-0.0457439347114372	-0.115048374571726	-0.535728749539524	0.836515737105539	-3.13003865211033	-33.095087952293	83.5987430992434
42331	1662097782386	5.30468560896079	-0.46710817852252	8.0957330612625	0.0264305604767953	0.0136011869491282	-0.122595018344628	0.00411801513822095	0.00512888387961911	-0.00790576647648819	0.3505859375	-0.473388671875	0.437255859375	0	0	0	0.170240333023352	-0.229663753184097	0.632868608192807	0.719548548917717	0.0934637704749863	0.832563309710512	0.545987965922765	-0.988955445012326	0.140991107552395	-0.0457015904714688	-0.11502891544769	-0.535686328848355	0.836545578970985	-3.12703565906531	-33.0922036503924	83.5947782597057
42332	1662097782387	5.34603638603855	-0.503402623128835	8.13663903889134	0.0601967731575859	0.0217121803312734	-0.0641326520326668	0.00427591063708356	0.00595832230873784	-0.00990593580246518	0.354248046875	-0.463134765625	0.431640625	0	0	0	0.17017036017927	-0.229686676372946	0.632881741143648	0.719546232663469	0.0934094648474669	0.832603616229291	0.545935793036889	-0.988947074016345	0.141005500486883	-0.0458381241648575	-0.115144937671698	-0.535619890476774	0.836572158426414	-3.13625961913271	-33.088635674237	83.5987763348867
42333	1662097782387	5.31924814249139	-0.523131677896461	8.14510851115372	0.0769937731965793	-0.0074289676536591	-0.0707739548192787	0.00800916299349466	0.00602925371829216	-0.0106582763552066	0.35107421875	-0.4775390625	0.432373046875	0	0	0	0.170178630489361	-0.229640605452933	0.632863862622029	0.719574705947271	0.0934970474286729	0.832625808220346	0.545886953139142	-0.988945503183256	0.141045130223783	-0.0457500051778261	-0.115087331430247	-0.535574957149391	0.836608852103952	-3.13010547080426	-33.085295764191	83.5929936585534
42334	1662097782389	5.35068018868742	-0.515486431567653	8.11848848556027	0.0736860387573693	0.033832457094708	-0.0762205708603858	0.010279413566875	0.00695777780455949	-0.00992999691293491	0.358642578125	-0.465087890625	0.43603515625	0	0	0	0.170128247872476	-0.229712359641917	0.632867083104171	0.71956088430848	0.0934229739019217	0.832611673415269	0.545921193250406	-0.988933918457395	0.141071268798119	-0.04591951702917	-0.115246921311696	-0.535590046969055	0.836577222207168	-3.14179841975013	-33.0876372564472	83.5979197028224
42335	1662097782390	5.32093587116634	-0.500864341956317	8.13174712392919	0.0559407629842177	0.00463679441568687	-0.0820458687664356	0.00686152514041129	0.00854391586969624	-0.0131791141170569	0.35400390625	-0.4697265625	0.4384765625	0	0	0	0.17012656375777	-0.22965999130475	0.632840972554554	0.719600961751776	0.0935371837002166	0.83264341466574	0.545853221369269	-0.988928475279006	0.141138511520359	-0.0458300267091046	-0.115200981105943	-0.535522982307569	0.836626481395751	-3.1355034960495	-33.0829890955581	83.5904005613418
42336	1662097782391	5.34128792905764	-0.464265899917253	8.14288816431082	0.0206427394540374	0.020272418533776	-0.0632930253396449	0.0118321338889472	0.00353156803966653	-0.0102566207016636	0.352294921875	-0.47412109375	0.431884765625	0	0	0	0.170160561695341	-0.229675676820936	0.63281030023003	0.719614890509605	0.0936004147992481	0.83259594547555	0.545914786323912	-0.988922914177982	0.14119301433261	-0.045782120062293	-0.115197361788956	-0.535582415956074	0.836588933440742	-3.1323727498988	-33.0871991173591	83.5857411390778
42337	1662097782391	5.32860908591987	-0.492994523132477	8.09921163082467	0.0537981763348523	0.0292061314543203	-0.105442639444606	0.00477184573881808	0.00247904083275983	-0.0115987238358315	0.352294921875	-0.462646484375	0.436767578125	0	0	0	0.170168891493472	-0.229653459519932	0.632782022058916	0.719644877323142	0.0936924021791133	0.83259693200546	0.54589750190764	-0.988916430542051	0.141258921853826	-0.045718818889627	-0.115178240904587	-0.535563503061765	0.83660367379682	-3.12799534106992	-33.0860171296104	83.5794975761016
42338	1662097782392	5.3519662079326	-0.49064877816881	8.10555046155696	0.0519295685382112	0.0454775018604152	-0.0874901029701185	0.0105261000613987	0.00521722880458458	-0.0107774542729929	0.347900390625	-0.4658203125	0.43408203125	0	0	0	0.170140516623008	-0.22968478183038	0.632780982218371	0.719642504401693	0.0936662590765689	0.832594806680655	0.545905229686439	-0.988909556444911	0.14128086629202	-0.045799628728922	-0.115258496791047	-0.535561018660039	0.836594211197573	-3.13354856163004	-33.0865455886442	83.5812578946772
42339	1662097782392	5.32234614259595	-0.475958294922039	8.11871276322463	0.0341682274035143	0.0162735709650263	-0.0933268269817908	0.00922040616425969	0.00690307330918792	-0.0112979910933038	0.35205078125	-0.468505859375	0.440185546875	0	0	0	0.170149987544804	-0.229633496168648	0.63276275966118	0.719672654171211	0.0937594948466632	0.832619836386192	0.545851046698941	-0.988908382438053	0.141320543448942	-0.0457024632055026	-0.11519274399828	-0.535511635779772	0.836634878351734	-3.12676214303997	-33.0828403878613	83.5751135875035
42340	1662097782393	5.2955397349264	-0.495475394782401	8.12721420656448	0.0497398125258356	-0.0123050695434741	-0.0999523144946881	0.00694989289513972	0.00597210931538223	-0.0120273931813906	0.349365234375	-0.462646484375	0.435791015625	0	0	0	0.170099764392751	-0.229613515222657	0.632772213601233	0.719682589392589	0.0937539186425814	0.8326758806789	0.545766507285651	-0.988904700041962	0.141330791695453	-0.045750426813913	-0.115228889494254	-0.535421782386891	0.836687407561251	-3.12984096097896	-33.0770596322538	83.5759212976013
42341	1662097782393	5.35060465307568	-0.486705096644734	8.10668704140112	0.0495293774257803	0.0462558433041292	-0.0874812537451035	0.00816328686514576	0.00685031267191649	-0.0126640595033202	0.349365234375	-0.468017578125	0.435791015625	0	0	0	0.17010661327044	-0.229564544373944	0.632748271766255	0.719717642318752	0.0938594890864025	0.832699294332901	0.54571263639935	-0.988901083014594	0.141386729396958	-0.0456556761311844	-0.115173974147824	-0.535370598714499	0.836727720176089	-3.12322161900102	-33.0733761707298	83.5689274340203
42342	1662097782393	5.30280995070193	-0.487678453584355	8.09493895695298	0.0473586290982733	0.0136423652142449	-0.123351408506984	0.00896940305067321	0.00863785365611332	-0.0104553857570177	0.351806640625	-0.474853515625	0.433349609375	0	0	0	0.170064867022086	-0.229527509599771	0.632765354801813	0.719724300759828	0.0938502561989268	0.832764074263568	0.545615364544786	-0.98890233585555	0.141371893534593	-0.0456744770947834	-0.115170740862574	-0.535273747099918	0.836790126683375	-3.1242726517651	-33.0667255266233	83.5700507833148
42343	1662097782394	5.32306062972222	-0.504919911774668	8.11576011074114	0.0648687252665034	0.0176214077659063	-0.0940988784772667	0.00685686930804565	0.00853435685125043	-0.013185863692461	0.358642578125	-0.471435546875	0.431884765625	0	0	0	0.170061832025749	-0.229476127525485	0.632739835738901	0.719763836583265	0.0939620143300314	0.832796242154676	0.545547027226886	-0.98889676476731	0.141438547114309	-0.0455886611224859	-0.11512744458117	-0.535206087823413	0.836839360367906	-3.11823107235141	-33.0620534871604	83.562704725629
42344	1662097782395	5.34881702494472	-0.482799039620378	8.10810016747104	0.0438707493024632	0.0456987969811165	-0.0874514477603672	0.0113299553562279	0.00700112342074802	-0.00857121971613503	0.360595703125	-0.472900390625	0.43408203125	0	0	0	0.170004710108666	-0.229590055195945	0.63274117310778	0.719739823095944	0.0938540288186252	0.832755258441389	0.545628170838647	-0.988880821551067	0.141474012790116	-0.0458238417589475	-0.115352252006624	-0.535260481675302	0.836773610191982	-3.13453105329152	-33.0676010862432	83.5697269730786
42345	1662097782395	5.32493988835689	-0.482891419534572	8.10223292997715	0.0430473898442784	0.0292141547125661	-0.105389035438536	0.00234381918185634	0.000713550622468498	-0.0103297553358354	0.34765625	-0.462890625	0.426025390625	0	0	0	0.170006103787508	-0.229585180875246	0.632713966502656	0.719764965797828	0.0939273626299139	0.832748928743282	0.545625212234832	-0.988872457095085	0.141541922534935	-0.0457946259275385	-0.115364267206607	-0.535252375839689	0.836777138794943	-3.13252337358721	-33.0673988072725	83.5646962412985
42346	1662097782396	5.31894921308643	-0.467473802789691	8.12143147622154	0.0231875903764491	0.0150465043005202	-0.0932924505404298	0.0087172190544764	0.0103721478741087	-0.00961372162826322	0.35693359375	-0.46533203125	0.438232421875	0	0	0	0.169972620834859	-0.229669513014424	0.632697309751332	0.719760611030969	0.0938920580502893	0.832706146422682	0.545696577912092	-0.988856262634393	0.141606844799913	-0.0459433711709824	-0.115531698177697	-0.535301760893517	0.836722445916493	-3.14288275265549	-33.0722781896741	83.5667670701997
42347	1662097782397	5.32687154435097	-0.514925254806219	8.09832761283016	0.0742165149815618	0.027871219195522	-0.106125992830389	0.00452069755523917	0.00420761812249831	-0.0107587909751892	0.3486328125	-0.47314453125	0.437744140625	0	0	0	0.169970904636787	-0.229646248151845	0.632673670151846	0.719789218718457	0.0939732556127494	0.832717012395046	0.545666019188854	-0.988849734574299	0.141667837347091	-0.045895820002893	-0.115521554966511	-0.535268718616424	0.836744984573467	-3.13955199477996	-33.0701888090917	83.5613336438748
42348	1662097782397	5.31793268047657	-0.46528255570686	8.12222296219829	0.0208925567030854	0.0152995680984653	-0.0932876412952463	0.00896618094612297	0.00863295687349288	-0.0104591194884208	0.352783203125	-0.47119140625	0.442626953125	0	0	0	0.169922934509171	-0.229637680862129	0.632678494132188	0.719799037870073	0.0939689171817803	0.832761325502924	0.545599136134119	-0.988844159926818	0.141688238780838	-0.0459529147041979	-0.115572790838981	-0.53519437379124	0.836785463712111	-3.14329803222325	-33.0656160111791	83.5619681232411
42349	1662097782398	5.29398954383687	-0.518845873199875	8.12610562197032	0.0720974175590519	-0.0138022167320454	-0.100646886803272	0.00841048340739396	0.00510462607633832	-0.0135130864857497	0.348876953125	-0.468505859375	0.4365234375	0	0	0	0.169935110098515	-0.229596724826262	0.632650422486746	0.719833901141229	0.0940775737527901	0.832773353931344	0.54556205064019	-0.988839532777781	0.141751002566294	-0.0458588234396586	-0.11552397384356	-0.535159036411973	0.836814804609718	-3.13676504600865	-33.0630805764372	83.5546787285115
42350	1662097782398	5.32837730808605	-0.491612867487285	8.08512197908983	0.0525364504471385	0.041751029335526	-0.117431715539922	0.00582612609354807	0.0025195285800831	-0.0102390383792305	0.353515625	-0.4677734375	0.42578125	0	0	0	0.169868600811829	-0.229593886943245	0.632666433806726	0.719836432164143	0.0940396612251432	0.832831112262895	0.545480412630563	-0.988834281582888	0.141755683985022	-0.0459574762622117	-0.115599765065131	-0.535067906442619	0.836862611073048	-3.14332021187514	-33.0574994642403	83.5576973579362
42351	1662097782398	5.3199409491288	-0.495526875444894	8.11838421100498	0.0525861865090322	0.0164491613087986	-0.0940226031110107	0.0120778494219353	0.00178413791161351	-0.0111065028240929	0.3486328125	-0.463623046875	0.427978515625	0	0	0	0.169901051985632	-0.229555197302825	0.632648989537794	0.719856443995777	0.0941193348561396	0.832829564791357	0.545469033782558	-0.988836242833434	0.141777777141968	-0.0458469930065237	-0.115518118342084	-0.5350644614606	0.836876087850873	-3.13572827076149	-33.0567215871957	83.5522732833362
42352	1662097782399	5.34045799858104	-0.458828071006739	8.12934598172169	0.0152632080783218	0.0316545934742168	-0.0753342415379663	0.00930734116008343	0.00432762700792038	-0.01014808196767	0.359130859375	-0.471435546875	0.43603515625	0	0	0	0.169877435125988	-0.229661780104655	0.63263987947429	0.719836027643055	0.0940444993158343	0.832765247237413	0.545580127150948	-0.988822663840003	0.141816879867543	-0.0460186055959551	-0.115695166816921	-0.535154197945084	0.836794247588354	-3.14774945303032	-33.0643164093776	83.5568634298667
42353	1662097782400	5.31666893521969	-0.512655819384025	8.13314339191755	0.0664359825597736	0.00255637932500503	-0.0826624068546753	0.00426808744004883	0.00594015024580426	-0.0099182174279657	0.347900390625	-0.47265625	0.43896484375	0	0	0	0.169866709167045	-0.229635346033699	0.632621027350352	0.719863559796527	0.0941164872123385	0.832786848422761	0.54553473943361	-0.98881645057948	0.141871873741889	-0.0459825891437636	-0.115689731170093	-0.535106004951404	0.836825817937485	-3.14517239394176	-33.0612134299381	83.5521387908537
42354	1662097782401	5.34539191340298	-0.471059325596198	8.11104895653155	0.0290341893404015	0.0444961852332962	-0.0873902603349137	0.0106132536227225	0.00264121188619452	-0.0096272736526023	0.34716796875	-0.47705078125	0.43603515625	0	0	0	0.169818084095556	-0.2296816105648	0.632629466666182	0.719852855789387	0.0940526313480437	0.832792074356144	0.545537774518043	-0.988808438588528	0.141883552439554	-0.0461186439875415	-0.115810078631465	-0.535094775191014	0.836816352164949	-3.15449528054071	-33.0614209232919	83.5565168050834
42355	1662097782402	5.3133017424987	-0.476407516178395	8.13820589883432	0.0286758803430591	0.00262891432079161	-0.0819265735847168	0.00314822975560128	0.0024964872651796	-0.00812387331631736	0.348876953125	-0.46923828125	0.434326171875	0	0	0	0.169811490820945	-0.229673210550157	0.63261312220023	0.719871454886794	0.0941017079513211	0.832797956747203	0.545520331241953	-0.988802557887823	0.141929390410491	-0.0461036837162337	-0.115820421667098	-0.53507346353131	0.836828547881503	-3.15342820490173	-33.0602284215066	83.5532280515084
42356	1662097782403	5.32700028399746	-0.484835383909828	8.08643852312416	0.0412737696192491	0.0418810018575028	-0.117377788040173	0.00557371472022586	0.00425320471799042	-0.00939783190622019	0.359130859375	-0.46728515625	0.440673828125	0	0	0	0.169666255181314	-0.22973314220092	0.632662608459278	0.719843086432553	0.0939214144639894	0.83287968563106	0.545426619416572	-0.988791533344125	0.141902771420504	-0.0464209764024195	-0.116060637134462	-0.5349532995751	0.836872090454482	-3.17492147156958	-33.0538221308883	83.5661021203917
42357	1662097782404	5.31567393089536	-0.508891342770202	8.13403013316255	0.0587385325319844	0.00392541194342641	-0.0826133500234363	0.00289686782738709	0.00423359386008168	-0.0072807897898403	0.34716796875	-0.469482421875	0.43603515625	0	0	0	0.16965084622194	-0.229720660004888	0.632651310771151	0.719860630763097	0.0939614746929274	0.832896934520657	0.545393378892358	-0.988786151978625	0.141941818711449	-0.0464162229849745	-0.116074057949376	-0.534916083668251	0.836894017486197	-3.17451402493025	-33.0515498673573	83.5635130812322
42358	1662097782406	5.31797428205606	-0.488603587281297	8.12009216167837	0.039850596109002	0.0166788280618174	-0.0939624289506895	0.00174696099038254	0.0067434391116243	-0.00980538368074308	0.34765625	-0.464111328125	0.4287109375	0	0	0	0.169599979238439	-0.229729352170581	0.632640735087631	0.719879137148306	0.0939802501181352	0.832925546282326	0.545346446708899	-0.988773919716687	0.142003094700207	-0.0464893190277278	-0.116163024563889	-0.534855265885878	0.836920543587213	-3.17940241812414	-33.0483417660145	83.5624570225504
42359	1662097782407	5.34942759468994	-0.481269317659752	8.09347693807809	0.0390950744988752	0.0586910783053959	-0.0994288214995578	0.00905412873654386	0.00606212114048416	-0.00930695653989237	0.34814453125	-0.4716796875	0.43505859375	0	0	0	0.169603066494019	-0.229689131446089	0.632630913877704	0.719899874661489	0.0940420594036044	0.832949869147876	0.545298639783436	-0.988773793282294	0.142025853284172	-0.0464224376465336	-0.116114067973147	-0.534811342891528	0.836955405462733	-3.17470579557466	-33.0450739908642	83.5584452553386
42360	1662097782409	5.34642300080885	-0.500124326974124	8.10796734944623	0.0536433558873864	0.0464212858214156	-0.0880554805950062	-0.000584463474454362	0.00242204349770803	-0.00737326637632726	0.35302734375	-0.468017578125	0.43505859375	0	0	0	0.169496929161462	-0.229768873754495	0.632657787175347	0.719875808723157	0.0939007779599687	0.832979835339162	0.545277211899467	-0.988760309412261	0.142029830662455	-0.0466966565501828	-0.116343003354238	-0.53476361237498	0.836954111316851	-3.19342511777935	-33.043609357343	83.5682708347483
42361	1662097782409	5.31697688483468	-0.486062644239952	8.12089777265536	0.0357137353093717	0.0172341951848951	-0.0939473156145229	0.00719376068774326	0.00421658882268804	-0.0128822857388299	0.35546875	-0.467041015625	0.43310546875	0	0	0	0.169502349758782	-0.229738796826112	0.632631814947091	0.719906956054663	0.0939941438992793	0.832989556618232	0.545246274152884	-0.988754620189358	0.142091880286002	-0.0466283026818133	-0.116315957490104	-0.534731985317644	0.836978077318284	-3.18866916495878	-33.0414947509664	83.5620039106594
42362	1662097782410	5.32234205175132	-0.499460068095545	8.10227334136228	0.0508631234942089	0.0289887541554141	-0.10597880017472	0.00541545853269996	0.00342557637519483	-0.00739695709944681	0.35009765625	-0.464111328125	0.443115234375	0	0	0	0.169493635728707	-0.229804672461579	0.632616094834161	0.719901796441061	0.0939733781432038	0.832942067371367	0.545322396939158	-0.988743785143198	0.14213756800848	-0.0467187232417292	-0.116424789203403	-0.534793814627422	0.836923439924582	-3.19504790262937	-33.0466978626741	83.563050399382
42363	1662097782410	5.32203795575259	-0.498330679251521	8.10254263974302	0.0502559945034767	0.0290678530099053	-0.105975874356554	0.0105166603703267	0.0052006671101041	-0.0107890000169827	0.354248046875	-0.46923828125	0.43310546875	0	0	0	0.169505404983964	-0.229762989780603	0.63260207872843	0.719924646193454	0.0940471570310957	0.832959518153442	0.545283021349421	-0.988743792685792	0.142165055339383	-0.0466348524782199	-0.116365135155181	-0.534759327322053	0.836953772416602	-3.18920856715531	-33.044006441049	83.5581730163391
42364	1662097782412	5.33695152054085	-0.500896731591791	8.14209655335852	0.0501307100432227	0.0204840539721139	-0.0646233243111105	0.00946066621634795	0.00514585697834293	-0.0121554100185456	0.353271484375	-0.474365234375	0.4326171875	0	0	0	0.169499732819273	-0.229729769324173	0.632590971364368	0.719946342867816	0.0941057920690946	0.832984843687791	0.545234215805901	-0.988741381772113	0.14219700704496	-0.0465885303355668	-0.116338213285321	-0.534711381376797	0.836988147320914	-3.18591669259661	-33.0406705722561	83.5543848839972
42365	1662097782412	5.34198146329749	-0.460197621752076	8.11391884292971	0.0145050472802563	0.0458810412396727	-0.0873641723078151	0.00946017818935625	0.00514481027654981	-0.0121561088947365	0.3583984375	-0.461669921875	0.439208984375	0	0	0	0.169509339185298	-0.229690298497421	0.632570934638311	0.719974279648894	0.0941927588539591	0.833000304554947	0.545195576642773	-0.988738907417234	0.142241193159555	-0.0465060848483424	-0.116288852169307	-0.534675542343122	0.837017901410259	-3.1801774919748	-33.038029667216	83.5485971750271
42366	1662097782414	5.34165940845	-0.458853204975665	8.11420700103721	0.0129508391097761	0.0448223300238239	-0.0873570413988567	0.00719202305200653	0.0042114531960703	-0.0128852901240629	0.34765625	-0.4697265625	0.4384765625	0	0	0	0.169522858666314	-0.22973585693006	0.632529281357305	0.719993155978461	0.0942562885324462	0.832942548656589	0.545272833276659	-0.988724465476345	0.142337417230426	-0.0465187169286508	-0.116360145413301	-0.53473990901525	0.836966872860424	-3.18123306933606	-33.043310073777	83.5438387963058
42367	1662097782414	5.32065196987991	-0.49292063137231	8.10378371624826	0.0465452499677834	0.0284039722517734	-0.105955406110978	0.00693947365271501	0.00594866794128345	-0.0120428749923916	0.354248046875	-0.46435546875	0.437744140625	0	0	0	0.169520776534511	-0.229702110191028	0.632507144508769	0.720023860050686	0.0943433054383055	0.832961911215283	0.545228204684569	-0.988719031580078	0.142394836937	-0.0464584438507945	-0.116335795481558	-0.534694459367467	0.836999293793851	-3.17699686617297	-33.0402597196322	83.538077838788
42368	1662097782415	5.33831773093159	-0.476132543796742	8.12902340619048	0.0286286425150769	0.0328332243852973	-0.0759804123876471	0.00687807205159263	0.00256214862518058	-0.00887971117800371	0.3544921875	-0.4677734375	0.437255859375	0	0	0	0.169489702333054	-0.229686242278927	0.632514737674166	0.720029567126114	0.0943386734655333	0.832999719869129	0.545171240425167	-0.988717531204542	0.142396694856066	-0.0464846725584343	-0.11635230198651	-0.534635060571247	0.837034941821678	-3.17865170103052	-33.0363663788693	83.5386832192315
42369	1662097782416	5.32016170814477	-0.490879472858503	8.10422947067919	0.0447200374433671	0.0290793678424557	-0.105948825394192	0.00435809913419717	0.00336717737793786	-0.00876558665036717	0.344482421875	-0.471435546875	0.429931640625	0	0	0	0.169482425260749	-0.229672536143712	0.63249957273801	0.720048973442283	0.0943896332551014	0.833010419222526	0.545146070884382	-0.988712252988219	0.14243999602794	-0.0464642693100839	-0.11635582462828	-0.534606854612128	0.8370524673381	-3.17719298637499	-33.0346461690686	83.5353048220695
42370	1662097782417	5.34339563351286	-0.488572910755973	8.11066690070882	0.0419386638821784	0.0459623901193953	-0.0879957791572359	0.00920561165929283	0.00687911749882093	-0.0113160406688595	0.357666015625	-0.464599609375	0.441162109375	0	0	0	0.169399016253522	-0.229709333694229	0.632523676181828	0.720035689654005	0.0942948421663593	0.833054172500029	0.545095614017498	-0.988704313108247	0.14243554472353	-0.0466465094134745	-0.116500060008446	-0.534539859392733	0.837075190612185	-3.18954234517545	-33.0311978005815	83.5420784668664
42371	1662097782418	5.29571934634234	-0.490068482566462	8.09877280051057	0.0406991711644346	0.0129374410134748	-0.123873836208613	0.00264076452873642	0.00596435558109137	-0.00644313668994055	0.349853515625	-0.459228515625	0.43994140625	0	0	0	0.169373814829202	-0.229694309874782	0.632517481902716	0.720051852263986	0.0943243181971896	0.833082365850702	0.545047424271716	-0.988699171882912	0.1424682918753	-0.0466554747931897	-0.116519828847622	-0.534487191164327	0.837106069722702	-3.19003666859051	-33.0279044996964	83.5402935891997
42372	1662097782419	5.31628720972082	-0.507784269249773	8.11943282122163	0.0596319674020509	0.0168191359467629	-0.0945545691454121	0.0054130370971689	0.00342047593014855	-0.00740037983378825	0.35595703125	-0.46484375	0.44384765625	0	0	0	0.169428549294227	-0.229616901534952	0.632487802986247	0.720089733496578	0.0944705152062375	0.833088629943401	0.545012528677733	-0.98870326402541	0.142506291515369	-0.0464522613447192	-0.116366565052722	-0.534467296976686	0.837140090427084	-3.17604178301568	-33.025519801732	83.5304144895931
42373	1662097782419	5.32435468644457	-0.501713595948268	8.08656164638165	0.0585339224608354	0.042282599268856	-0.117960212881849	0.00556932465765961	0.00424315369076284	-0.00940438106901336	0.3515625	-0.467041015625	0.436767578125	0	0	0	0.169423372470575	-0.229595473372828	0.632472740774172	0.720111013417383	0.0945283015686273	0.833103493829913	0.544979787488438	-0.988698851441123	0.142547906076608	-0.0464184837341601	-0.116357128537767	-0.534433029519665	0.837163278934808	-3.17364932808643	-33.0232823903172	83.5266052293094
42374	1662097782420	5.34758914368762	-0.499398366455961	8.09300435986869	0.0586020397187011	0.0589436623858774	-0.100019384324209	0.00799250325264284	0.00599852666343775	-0.0106801414367305	0.347412109375	-0.46826171875	0.43017578125	0	0	0	0.169434443574412	-0.229544174141222	0.632452782653302	0.720142290913781	0.0946258996638388	0.833126612746757	0.544927505495844	-0.988697370432221	0.142590894089449	-0.0463178866441833	-0.116290364232043	-0.534385520065697	0.837202882896908	-3.16663598059403	-33.0197097506355	83.5201567197362
42375	1662097782421	5.31800862028377	-0.484990549396998	8.10599698413985	0.0406718165876086	0.0297592795221277	-0.105933079644386	0.00703337360740733	0.0033814755629876	-0.0108855382829998	0.350341796875	-0.470703125	0.433349609375	0	0	0	0.169439136862684	-0.229519571952637	0.632433383837182	0.720166064181143	0.0946975621978599	0.833134925460077	0.544902346932379	-0.988693318119066	0.14263678781496	-0.0462630464684371	-0.116266480210305	-0.534360311719033	0.837222289979814	-3.16282114615358	-33.0179906159936	83.5153553096865
42376	1662097782423	5.33575435520307	-0.468204038952561	8.13116660589674	0.020312699583661	0.0337304062982084	-0.0759625791814997	0.00687671478745196	0.00255820122658153	-0.00888198312862155	0.361328125	-0.468505859375	0.439208984375	0	0	0	0.169348475823045	-0.229607388919875	0.632465140834159	0.720131506267735	0.0945365851660501	0.833148826358896	0.544909044889087	-0.988683471764055	0.142617878732079	-0.0465309931823562	-0.116481014443199	-0.534343685096734	0.837203081379618	-3.1811749238511	-33.0184482974128	83.5263920405493
42377	1662097782424	5.33846697823083	-0.500892506431066	8.12685058313235	0.0541957209506303	0.0338917260567274	-0.0765825313196764	0.0142423415061171	0.00526390537729425	-0.0115479919906588	0.3515625	-0.466064453125	0.44677734375	0	0	0	0.169372974810841	-0.229553538571349	0.632453572156413	0.720153072200412	0.0946153039919318	0.833166434612762	0.544868457965014	-0.9886870974375	0.14263054894064	-0.0464149746256883	-0.116386286181516	-0.534312847256689	0.837235936666197	-3.17313506459049	-33.0156749684881	83.5211831676843
42378	1662097782426	5.31714967813867	-0.480844964117401	8.10680739587001	0.0365729316590683	0.0298490850230537	-0.105917046276833	0.0106666575987365	0.0060119909437884	-0.0128011144768073	0.351806640625	-0.47216796875	0.434326171875	0	0	0	0.169415031372613	-0.229487398166876	0.6324127684537	0.720200091310978	0.0947792487586486	0.833170237653045	0.544834148245056	-0.988684696693288	0.142705274883486	-0.0462360794718847	-0.116273232212956	-0.534286963727918	0.837268162455228	-3.16080842568622	-33.0133306327285	83.5100820576812
42379	1662097782427	5.33767897467673	-0.49774644439786	8.12756143774336	0.0537340589990901	0.0338472634993092	-0.0765798177645536	0.00945474689908139	0.00513307166912784	-0.0121638709561702	0.353271484375	-0.47021484375	0.435546875	0	0	0	0.169423796939713	-0.229448158853307	0.632393293870928	0.720227631583541	0.0948645285318129	0.833186292000438	0.544794754057891	-0.988682205095453	0.142748597795219	-0.0461555538921639	-0.116224862030594	-0.534250353907285	0.837298238858718	-3.15520152611777	-33.0106389592096	83.5044165868633
42380	1662097782428	5.33999010401854	-0.476694426397291	8.11361609121239	0.0330401988962404	0.046235811320265	-0.0879627710794395	0.0105094015201887	0.00518793817573777	-0.0107982165156973	0.3525390625	-0.478271484375	0.431396484375	0	0	0	0.169364955616473	-0.229513402837489	0.6324024623437	0.720212632039047	0.0947814470791636	0.833185429255147	0.54481053382483	-0.988671538394975	0.14276527486131	-0.0463321212711854	-0.116383273958473	-0.534247243110052	0.837278219453973	-3.16732274991992	-33.0117171282317	83.5100501389069
42381	1662097782429	5.31602537529516	-0.476519861196544	8.1078000547726	0.0321113192845826	0.0297735517076738	-0.105901029325118	0.0105089335080534	0.00518693002484048	-0.0107988900395122	0.3564453125	-0.47119140625	0.433349609375	0	0	0	0.169375110155124	-0.229472608440771	0.632389311453211	0.720234790047706	0.0948521614702451	0.833203669261354	0.544770330500697	-0.988671462590311	0.142791661639347	-0.0462523558946977	-0.116326293347455	-0.534211743502228	0.837308788070657	-3.16176576058335	-33.0089702201978	83.5053904479361
42382	1662097782430	5.31569583062407	-0.475166268233673	8.10809555387914	0.027481897293706	0.0287085162456412	-0.105883610206753	0.00824228391039952	0.00425221889004779	-0.0115276845477858	0.347900390625	-0.464599609375	0.437744140625	0	0	0	0.169292557131901	-0.229629374721924	0.632389142371052	0.72020438278017	0.0947086457520462	0.833149775837901	0.54487771420849	-0.988647951994997	0.142848005421893	-0.0465797634502812	-0.116642614150707	-0.534280729924112	0.837220760729121	-3.18443522413476	-33.0163074454915	83.5147174156857
42383	1662097782431	5.33899901249721	-0.472452570816563	8.11451638237152	0.0270752191250531	0.0453497322430249	-0.087940161761761	0.0119727768924857	0.00432397657375791	-0.0122804965158586	0.35302734375	-0.469482421875	0.432861328125	0	0	0	0.169311517932012	-0.229587393499614	0.632371583296039	0.720228727059171	0.0947916187714296	0.833160780748449	0.544846457667964	-0.988647941114344	0.142879581070439	-0.0464830489910663	-0.116575287008277	-0.534255125137581	0.837246477283223	-3.17773947628869	-33.0141717114188	83.5091692152734
42384	1662097782432	5.33621294355256	-0.49044279499316	8.12896799156321	0.0426334284826196	0.032900250747243	-0.0765216350036759	0.0123240712743179	2.44170615138221E-05	-0.0119601160959528	0.35205078125	-0.470947265625	0.437744140625	0	0	0	0.169302994172903	-0.229600155713154	0.632374273244096	0.720224300617236	0.094773094070994	0.833158649701521	0.544852938936508	-0.988646625000728	0.142878549406183	-0.0465142020705086	-0.116601507343953	-0.53425872435284	0.837240529321171	-3.17988738192714	-33.0146145669926	83.510410409877
42385	1662097782433	5.33598992991877	-0.488946730191852	8.12920450275229	0.041942479956105	0.0329904147719704	-0.0765189390437904	0.00919756265141453	0.00686508308567125	-0.0113267208828352	0.353271484375	-0.467041015625	0.428466796875	0	0	0	0.169302425295553	-0.229558825030517	0.632359333227871	0.720250726010919	0.0948488390604224	0.833184806062981	0.544799758328401	-0.988644269365637	0.142916724937293	-0.0464469415966802	-0.116559883233372	-0.534207720534804	0.837278869279305	-3.17515351359748	-33.0109808797805	83.5054702168307
42386	1662097782434	5.33829482286477	-0.467736769708258	8.11525284616792	0.0216226909581172	0.0449641229382236	-0.0879247190800854	0.0134359327578305	0.00345897676386804	-0.0137632556394843	0.357177734375	-0.466796875	0.433349609375	0	0	0	0.169289896578802	-0.229618962938696	0.632350192439364	0.720242526443139	0.0948167319617139	0.833146659421818	0.544863681331731	-0.988635341375513	0.142948330076475	-0.0465396251775951	-0.116661686613149	-0.534258756430451	0.837232125550593	-3.18165370245206	-33.015348584001	83.5073551722774
42387	1662097782435	5.337929073725	-0.466142371897769	8.11558515800371	0.0209148230414084	0.045049617542158	-0.0879235665968903	0.0102512219063802	0.00691970534235622	-0.00996195147320238	0.359619140625	-0.46923828125	0.43359375	0	0	0	0.16929093481235	-0.229576088756298	0.632341396980071	0.72026367153079	0.0948783542733068	0.833174771147316	0.544809965597186	-0.988635373851783	0.142969874111307	-0.0464727088251103	-0.116611300735972	-0.534209149884402	0.837270797723442	-3.17694194041539	-33.0116783032569	83.5033889366242
42388	1662097782437	5.33493272303146	-0.484397378642202	8.13017067946644	0.0364386571451331	0.0301905043722075	-0.0764877000696611	0.00954884123303664	0.00256376079200286	-0.0110067882646587	0.355224609375	-0.4677734375	0.437744140625	0	0	0	0.169343695150213	-0.2296755082991	0.632291490548726	0.720263385700045	0.09491326373444	0.833044620942162	0.545002873282891	-0.988621017985653	0.143060367785083	-0.0464996125382512	-0.116704563596662	-0.534387865401645	0.837143747600844	-3.17925878809378	-33.0248599819629	83.5000123501931
42389	1662097782437	5.33726243521954	-0.463422539657554	8.11617934786874	0.0182467002441274	0.0429152397305773	-0.087908541153956	0.00919517656892922	0.00686063674596916	-0.0113300461380974	0.35546875	-0.463623046875	0.4248046875	0	0	0	0.169342904854492	-0.229636049548252	0.632275877491653	0.720289858366391	0.094988998980065	0.833069333114274	0.544951902737575	-0.988618275873519	0.143100390635205	-0.0464347155576858	-0.116666167682137	-0.534338623369666	0.83718053064663	-3.17469154613063	-33.0213768946673	83.4950614930532
42390	1662097782439	5.3162322011026	-0.497510086750625	8.1058887796435	0.0505210332380562	0.0246558748808742	-0.106394888960819	0.00903911937813393	0.0060399771867339	-0.00932509048477908	0.35498046875	-0.465087890625	0.43701171875	0	0	0	0.169366559011457	-0.229711730462993	0.632248597146653	0.720284111293873	0.0949884645875722	0.832986267118981	0.545078957937728	-0.988608208531319	0.143153360189415	-0.0464857557857783	-0.116751880583531	-0.534453921547652	0.837094979152632	-3.17849810684536	-33.0300595054517	83.4944546620633
42391	1662097782440	5.33645164134587	-0.4609397838599	8.11685384160024	0.0155245826475955	0.0411885474909841	-0.0878963480431558	0.00702818134311321	0.00336564316728153	-0.0108945792520474	0.3505859375	-0.467041015625	0.438232421875	0	0	0	0.169368585441634	-0.229692995604239	0.632228634109171	0.720307131887713	0.0950561639656057	0.832992032762244	0.545058344626306	-0.988603143767609	0.143202472955904	-0.0464421777279393	-0.11673966688724	-0.534431777773308	0.837110820071702	-3.17546455724028	-33.0286507890399	83.4899025478778
42392	1662097782442	5.31002298706562	-0.480765827549897	8.12517470679325	0.0318089310996809	0.012021321115989	-0.09441655314893	0.0047626871484359	0.00243027997223519	-0.0116227455045244	0.35107421875	-0.4658203125	0.435302734375	0	0	0	0.16936065756792	-0.229691815687053	0.632206664846512	0.720328654433652	0.095112805460069	0.832991638540292	0.54504906601101	-0.988594666311208	0.143263401183623	-0.0464347243163064	-0.116765320102101	-0.534416062635901	0.837117274949093	-3.17493154452538	-33.0280166946001	83.4860536245141
42393	1662097782443	5.30975771356386	-0.479708538787029	8.12541055561764	0.0310831397290828	0.0120770711755047	-0.0944142737809646	0.00888225191574776	0.0052190775741574	-0.00732074885105677	0.3486328125	-0.46533203125	0.44189453125	0	0	0	0.169359352450223	-0.229663487171367	0.6322033504951	0.720340902643115	0.0951472125661144	0.833012545361679	0.545011107419799	-0.98859518323689	0.143272666720822	-0.0463951145221584	-0.116732907192952	-0.534380989782347	0.837144184795857	-3.17212703239935	-33.0254226770581	83.4838796027296
42394	1662097782443	5.33871523155653	-0.492211486430762	8.1130142774603	0.0475343510495483	0.0423326420290589	-0.0884340972568829	-0.0029530135858156	0.00402246439363287	-0.00927729729694313	0.347900390625	-0.468994140625	0.44189453125	0	0	0	0.169287195251582	-0.229646250896938	0.632203731415281	0.720363024424095	0.0951620828671533	0.833080044600252	0.5449053287253	-0.988584723457787	0.143320575016897	-0.046469961509743	-0.11680934264979	-0.534262905380552	0.837208889945667	-3.17698893994347	-33.0181943660789	83.4833934762657
42395	1662097782444	5.30341947703416	-0.463766447512529	8.14472028930125	0.0124559626350361	0.000395228912962572	-0.0824432440246596	0.0103469705807518	0.00435657344892407	-0.00880135435301856	0.351806640625	-0.462158203125	0.439697265625	0	0	0	0.169295340792017	-0.229614731313121	0.632196424821866	0.720377569884411	0.0952095112129078	0.833094840028533	0.544874422681441	-0.988585656782622	0.143333536057131	-0.0464100920601639	-0.11676278593059	-0.53423635683019	0.837232325500237	-3.17281560962263	-33.01608253568	83.4802883795846
42396	1662097782445	5.32028021786084	-0.506157655529287	8.08852389899802	0.0632487095636041	0.0398839299548139	-0.11834855785122	0.00224210479503618	0.00323177743954373	-0.0115107983046617	0.349365234375	-0.46142578125	0.43359375	0	0	0	0.169250522969322	-0.229553169046674	0.632194493462148	0.720409415187904	0.095270930033534	0.833173742819329	0.544743025808477	-0.988581718460988	0.143368765821498	-0.0463851583110343	-0.116746031261302	-0.534103839401338	0.83731920611048	-3.17078613442722	-33.0071046650773	83.4767313127121
42397	1662097782446	5.31696878172212	-0.471020982234675	8.09326453870835	0.0280079139954977	0.039890392804312	-0.117813827629188	0.00929148544308644	0.00429747946917093	-0.0101690914049838	0.351806640625	-0.46875	0.439453125	0	0	0	0.16925644025484	-0.229523355937443	0.632181457851592	0.720428963090817	0.0953312668556996	0.833187051967894	0.544712112948424	-0.988580276693159	0.143397723561791	-0.0463263360365699	-0.116708980344121	-0.534075303033519	0.837342573022947	-3.16668517159836	-33.0049926345296	83.4727390163795
42398	1662097782447	5.31664161448441	-0.469839647141672	8.09354812763443	0.0268648221023088	0.0402216755094662	-0.1178119614453	0.00571632441336397	0.00504223932678999	-0.0114233516769817	0.349609375	-0.475830078125	0.439453125	0	0	0	0.16922851825721	-0.22950607158352	0.632177739245403	0.720444291890317	0.0953565382177418	0.833219742548727	0.54465768262842	-0.988575632249176	0.14342602922208	-0.0463378189466013	-0.116727674277651	-0.534016698960453	0.837377343429538	-3.16733724489597	-33.0012739653687	83.4712775895725
42399	1662097782447	5.33736486416316	-0.487164089705408	8.11420733316526	0.0438474496016498	0.044203627069015	-0.0884250987485942	0.0046063476820024	0.00160719735172916	-0.0096189464139244	0.359619140625	-0.468505859375	0.437255859375	0	0	0	0.169225249663651	-0.229501134893089	0.632159219416711	0.720462882642481	0.0954079007784772	0.83321973331922	0.544648701895536	-0.988569280720717	0.143475072365459	-0.046321494201394	-0.116739494963649	-0.534003538955665	0.837384087918118	-3.16619821775064	-33.0006604184627	83.4677912916209
42400	1662097782449	5.33717579687469	-0.486414998616049	8.11437663207038	0.0412872782295047	0.0440486090959691	-0.08841318833176	0.0018304783114788	0.00414972082541903	-0.0086652066405355	0.348876953125	-0.47900390625	0.431396484375	0	0	0	0.169150292925172	-0.229573758418565	0.632152734724036	0.720463037101714	0.0953576188529943	0.833220421374	0.544656454962227	-0.988550295311732	0.143542196768503	-0.0465182908753144	-0.116941173954151	-0.533984425945369	0.837368135697806	-3.17968270395232	-33.0011900932544	83.4712095142056
42401	1662097782449	5.3159340195567	-0.467165311423857	8.0941677000498	0.0228588591215335	0.0402321871101885	-0.117801732050149	0.00929016825442123	0.00429558219356582	-0.010170628440428	0.34814453125	-0.47705078125	0.436767578125	0	0	0	0.169155604544626	-0.229544336263017	0.632140000862361	0.720482337361887	0.0954168339986111	0.833233988781786	0.544625327843349	-0.988548832663248	0.143570801521753	-0.0464610631661563	-0.116905231832496	-0.533955564526858	0.837391558281426	-3.17569036050904	-32.999063566854	83.4672957567241
42402	1662097782450	5.33654225507242	-0.484434891760154	8.11491175452713	0.0347836263114423	0.0451644169309044	-0.0883928683741537	0.00409446185555624	0.00508417375492733	-0.00793828773764878	0.3603515625	-0.46142578125	0.43798828125	0	0	0	0.168942711482805	-0.229682767537567	0.632203874996599	0.720432125166838	0.0951281734711369	0.833313503347677	0.544554162366304	-0.988526421462362	0.143553241352244	-0.0469891579843749	-0.117329214958856	-0.533836184644397	0.837408373066243	-3.21164701589824	-32.9942019131457	83.4875049437056
42403	1662097782450	5.33305169925294	-0.449519625968618	8.11972841560466	-0.000515655235453483	0.0451821986885476	-0.0879017048624604	0.00530395128216723	0.0059604838353101	-0.00857809689710314	0.347900390625	-0.473388671875	0.437255859375	0	0	0	0.168924964490261	-0.229662410237487	0.632194452196522	0.720451045045958	0.0951707038716962	0.833338878526252	0.544507897703216	-0.988521736502712	0.143589061967808	-0.0469782688577223	-0.117334196150267	-0.533786937663161	0.837439067391745	-3.2107868741317	-32.991041496649	83.4848150211205
42404	1662097782452	5.3121840910467	-0.48401992939673	8.10935871897165	0.0326640173067632	0.0283038713662917	-0.106328322072528	0.00450502011101533	0.00416161675536555	-0.0107863449188921	0.35400390625	-0.4658203125	0.447998046875	0	0	0	0.168918480185529	-0.229679037718901	0.632168938384492	0.720469652397764	0.095219945948688	0.833323002625173	0.544523585521595	-0.988511138552979	0.143657960787271	-0.0469906294822058	-0.117383520351964	-0.533793184293512	0.83742817336866	-3.21167160012512	-32.9921131450729	83.4813499010361
42405	1662097782453	5.33554564993914	-0.481711626576616	8.11572915649195	0.0321025766737119	0.0449492154571982	-0.0883826507839522	0.00686998019165075	0.00254009796273915	-0.00889281410142424	0.35009765625	-0.457763671875	0.440185546875	0	0	0	0.168917563357262	-0.229665898169626	0.632157233480498	0.720484326106868	0.0952616147524441	0.833329548905417	0.544506278821329	-0.988507964525697	0.143688177895457	-0.0469650040173072	-0.117376440668556	-0.53377483122959	0.837440864014769	-3.2098752965355	-32.9909309101696	83.4785726587793
42406	1662097782456	5.32969861102497	-0.466272895655171	8.13466197605343	0.0168365173681898	0.0332142119856751	-0.0764439156257115	0.00355104039439383	0.00154430354926869	-0.0109881261626004	0.355224609375	-0.4609375	0.435791015625	0	0	0	0.16896071553166	-0.229539463757739	0.632119998135072	0.720547166494017	0.0954718850710533	0.833378243002337	0.544394914791936	-0.988510851159381	0.143753169129493	-0.0467046411546559	-0.117181126044843	-0.533681300455213	0.837527822369679	-3.19178666578661	-32.983323920649	83.4646809397072
42407	1662097782454	5.34100103591873	-0.494218807864447	8.09722983916716	0.050219702840141	0.0587658979038241	-0.100339561788122	0.0091334647587806	0.0034753502823618	-0.0081658649316532	0.357421875	-0.473388671875	0.432861328125	0	0	0	0.168964661907273	-0.229515177324126	0.632114483944354	0.720558814804315	0.0955081251312773	0.833391418064852	0.544368388437245	-0.988511235421487	0.143764444428649	-0.0466617826878407	-0.117148348171853	-0.533657688798706	0.837547452808872	-3.18878918711673	-32.9815120704604	83.4623241393913
42408	1662097782455	5.32909859538433	-0.464192655375606	8.13517403383174	0.0143874873323921	0.031751693484563	-0.0764351092371171	0.00414600353071594	0.00845469901122129	-0.0111143106798953	0.35400390625	-0.47265625	0.4267578125	0	0	0	0.16896657710602	-0.229577815601569	0.632075946623327	0.720572217133655	0.0955480485676731	0.833330777147101	0.544454209529431	-0.988494687873799	0.1438605870426	-0.0467159880666153	-0.117255372841466	-0.533726472413695	0.837488644809374	-3.19270954622338	-32.9873741095832	83.4591431778086
42409	1662097782457	5.33447806501046	-0.47760612913542	8.11667354317353	0.0306988245111144	0.0445685001944355	-0.088376365587866	0.00728039680108657	0.0016157116319451	-0.0117416794750259	0.3515625	-0.464599609375	0.43798828125	0	0	0	0.168973948668894	-0.229563724678019	0.632053463026019	0.720594699439299	0.0956178323775441	0.833328172377636	0.544445945207757	-0.988489328497572	0.143912449096119	-0.0466696308275204	-0.117243667538336	-0.533716557844054	0.837496601966393	-3.18951765747105	-32.98680959532	83.4543872025426
42410	1662097782460	5.33154864648405	-0.496085879090097	8.13124581451113	0.0452770664741393	0.0310849688637965	-0.076894931291017	0.00756501342916158	0.00689302831163337	-0.00785360259321658	0.359619140625	-0.463623046875	0.439697265625	0	0	0	0.168927470798807	-0.229641140161428	0.6320604299026	0.72057481867341	0.0955291193933992	0.833308265337759	0.544491985494459	-0.988479053333057	0.143926245121717	-0.0468443922678941	-0.117402506232646	-0.533743918827128	0.837456912709756	-3.20158789639809	-32.989954533217	83.4602526353944
42411	1662097782460	5.35739404021471	-0.474391119767773	8.12339255899737	0.0272577819161957	0.0603735871150044	-0.0704167578229242	-0.000435555748175511	0.00320660838967057	-0.00939696422735223	0.35498046875	-0.4580078125	0.434326171875	0	0	0	0.168898953793574	-0.229648480946371	0.632038807812038	0.720598129352275	0.0955770412371244	0.833317188830542	0.544469918349875	-0.988466741519044	0.144000177653948	-0.0468769639199679	-0.117467144764311	-0.533710044532791	0.837469437212921	-3.20376156195654	-32.9884471480981	83.4570698922471
42412	1662097782461	5.33092554790857	-0.494626302213645	8.13174324804728	0.0454434772884057	0.0295745644551853	-0.0768910012805879	0.00555743400872008	0.00421644196900148	-0.00942208287685319	0.347900390625	-0.472412109375	0.434326171875	0	0	0	0.169003468879727	-0.22962699437757	0.631976622720049	0.72063501114996	0.0957539835769688	0.833233443924283	0.54456698628839	-0.988464478317223	0.14408675168396	-0.0466581514231365	-0.117342020326059	-0.533817418145233	0.837418541919485	-3.18903137057508	-32.9950779567414	83.4444091732343
42413	1662097782462	5.31800763759059	-0.470396918158381	8.07842758347417	0.0266589777353472	0.0511368489354182	-0.129705126483536	0.00409127445323469	0.00507883946451523	-0.00794225960880416	0.35546875	-0.465087890625	0.440185546875	0	0	0	0.168984493817939	-0.229614379576854	0.631966452626811	0.72065239907664	0.0957912788916427	0.8332537410307	0.544529369223228	-0.988458819855159	0.14412528720676	-0.0466590081132832	-0.117359244794989	-0.533775331619879	0.837442955081263	-3.18899702695568	-32.9925082380102	83.44203642513
42414	1662097782462	5.30986743280884	-0.528494816863376	8.12157768042784	0.077058329575754	0.0135056269589216	-0.0952853163216343	0.00208448813893338	0.00240226011962347	-0.00951041942277508	0.353759765625	-0.465576171875	0.436767578125	0	0	0	0.16892208017078	-0.229650714908478	0.631965325413098	0.72065644203623	0.0957607532350839	0.833273612854849	0.544504328963211	-0.988445918755037	0.144170316612588	-0.0467930070025079	-0.117492739504873	-0.533732148111441	0.837451759945603	-3.19810289227335	-32.9907977147534	83.4442630287546
42415	1662097782463	5.30910006355836	-0.474071828186644	8.11196562773102	0.0243228609091111	0.0261598022431824	-0.106297820964338	0.00619962813377294	0.00519877669874085	-0.00520747601070388	0.347900390625	-0.462158203125	0.438720703125	0	0	0	0.168906818757131	-0.229633448611977	0.631967759767795	0.720663386380903	0.0957704597852901	0.833298741105067	0.544464165124964	-0.988445362246181	0.14417447438284	-0.0467919521974491	-0.117489509687166	-0.533691792150808	0.837477931711832	-3.19793121722499	-32.9880541551475	83.4438002959899
42416	1662097782464	5.33788241420355	-0.486119687303609	8.09977619759692	0.041175951730433	0.0558514326193515	-0.100279812887184	0.00908101493362177	0.00939929820658824	-0.0125110053911689	0.35205078125	-0.467041015625	0.4375	0	0	0	0.16889890362743	-0.229559631157973	0.631961451109469	0.720694290533567	0.0958542001084593	0.833357279264407	0.544359823479463	-0.988446759343202	0.144195769330133	-0.0466967242021582	-0.117409438570707	-0.53359462628883	0.837551072192135	-3.19115833740905	-32.9809270594437	83.4385745349951
42417	1662097782464	5.33159627236771	-0.470384634232796	8.11898840517552	0.0233321810724985	0.0432035757406403	-0.0883497401181064	0.00676537008354629	0.00509006475616808	-0.0100638206839172	0.3505859375	-0.46923828125	0.433349609375	0	0	0	0.168891607892922	-0.229536541474034	0.631947093536355	0.72071594396297	0.0959116941981839	0.83337510098596	0.544322411786135	-0.98844228322488	0.144236991508593	-0.0466641512698642	-0.117400168863681	-0.533555649709748	0.837577201822965	-3.18883768684166	-32.9783717796508	83.4348124643455
42418	1662097782465	5.31343465266872	-0.485207817105231	8.09430550643584	0.0380105717089368	0.039439609489184	-0.118214932290549	0.00661055439231399	0.00427372522648338	-0.00805634117744917	0.353515625	-0.461669921875	0.430419921875	0	0	0	0.168840010939316	-0.229571543619033	0.631959079444226	0.720706375006072	0.095849256536761	0.833392150724859	0.544307305785569	-0.988435598468831	0.144241545228035	-0.0467914982640282	-0.117507394239316	-0.533527787224268	0.837579914132773	-3.19751169481987	-32.9773400360824	83.4391821232428
42419	1662097782465	5.33665142909232	-0.482765005034032	8.10078791597619	0.0374297474016605	0.0560742652181625	-0.100265937227494	0.00691925806976339	0.00590422307014441	-0.012072726489068	0.3486328125	-0.464599609375	0.443115234375	0	0	0	0.168832632691617	-0.229543637481031	0.631938504268153	0.720735032764277	0.0959268906306122	0.833411523890366	0.544263964911035	-0.988429350424497	0.144298537923494	-0.0467477397587249	-0.117496599411855	-0.533482111977412	0.837610521260789	-3.19441115023875	-32.9743799105577	83.4340658067442
42420	1662097782466	5.33053103894538	-0.467021866891436	8.1198819384505	0.0199155212393631	0.043453826924677	-0.0883432575928893	0.00928491390980552	0.00428562523970607	-0.0101774032288845	0.356689453125	-0.458984375	0.441650390625	0	0	0	0.168849846315437	-0.229499798639885	0.631932287732329	0.720750411408062	0.0959828522912738	0.833428901270692	0.544227487906262	-0.988432924189765	0.144302626241276	-0.0466594731811439	-0.117420809244796	-0.533453857973301	0.837639143647012	-3.18828336654617	-32.9718886553269	83.4304046444643
42421	1662097782466	5.30392747311609	-0.486828510497475	8.12835424654369	0.0363962918141885	0.0143379525430528	-0.0948037955997556	0.00650639734163262	0.00682670741100005	-0.00922603099966142	0.353759765625	-0.472900390625	0.4384765625	0	0	0	0.168834867783107	-0.229472049073847	0.631922333326465	0.720771483035884	0.0960334866741736	0.833457428579821	0.544174865445212	-0.988428960841027	0.144337904127794	-0.0466343092875046	-0.117412771059746	-0.533399741448296	0.837674732229021	-3.18643233753129	-32.9682948442037	83.427192279144
42422	1662097782467	5.33821476251709	-0.459641890432364	8.08736932019208	0.0185702240293929	0.0685854418098025	-0.111744052170444	0.00727932033048563	0.00160724490192152	-0.0117455796694544	0.347900390625	-0.469482421875	0.4375	0	0	0	0.168873164998987	-0.229453602031622	0.631881944455525	0.720803792254899	0.0961525055716361	0.833428691650888	0.544197860713717	-0.98842291563288	0.144414124828658	-0.0465263409454181	-0.117366245250042	-0.533424011910846	0.837665797315877	-3.17910405827994	-32.9698652706633	83.4188927740834
42423	1662097782468	5.32945826702823	-0.463481426626909	8.12078893160521	0.0181597846353321	0.0432884736445472	-0.0883390828478436	0.0110308052434967	0.0087002240182398	-0.00777203529826904	0.351806640625	-0.463623046875	0.437255859375	0	0	0	0.168867141830631	-0.229405850501346	0.631883909631558	0.720818679637567	0.0961913610089833	0.833469230262912	0.544128904095517	-0.98842567143646	0.144413226317382	-0.0464705509972361	-0.117311184942535	-0.533360911831336	0.837713688331416	-3.17511862894859	-32.9651560682522	83.4165740894055
42424	1662097782470	5.32632691342631	-0.482222731469907	8.13550080930239	0.0340876679539708	0.0312977772674376	-0.0768500060290371	-0.000694812005798121	0.00493687976302772	-0.00856242591719646	0.350341796875	-0.461669921875	0.43896484375	0	0	0	0.168790621259016	-0.229413449908542	0.631894521987165	0.720824880438147	0.0961575641673466	0.833524909051362	0.544049583075221	-0.98841626399231	0.144438078515216	-0.0465932457585472	-0.11741810732969	-0.533267163310991	0.837758390352112	-3.18331505797497	-32.9597393679619	83.4193026399808
42425	1662097782469	5.31062725655914	-0.477480500322729	8.09660711474501	0.0327888734455894	0.0402160269898864	-0.118199054837715	0.013704795823586	0.00871172668826221	-0.00989319949641973	0.345458984375	-0.4697265625	0.435791015625	0	0	0	0.168796319924646	-0.22935533434225	0.631892205681301	0.720844070092743	0.0962167420159489	0.833562826022263	0.543981023225641	-0.988420171590497	0.144440085558233	-0.0465040436622769	-0.117336707593357	-0.533207348746911	0.837807865977302	-3.17704590238881	-32.9550577976035	83.4155851583421
